Folder: thermal-expansion/test-folder

Note: README.md
# thermal-expansion
Calculates linear and volume alphas from dilatometer data (Netzsch DIL-402c) by curve fitting

File: albAmel001r1.csv
#EXPORTTYPE:           ,DATA ALL
#FILE:                 ,albAmel001run1.ngb-sle
#FORMAT:               ,NETZSCH5
#FTYPE:                ,ANSI
#IDENTITY:             ,amelia 100
#DECIMAL:              ,POINT
#SEPARATOR:            ,COMMA
#MTYPE:                ,DIL
#INSTRUMENT:           ,NETZSCH DIL 402C
#PROJECT:              ,feldspar
#DATE/TIME:            ,8/13/2019 9:17:30 AM (UTC-5)
#CORR. FILE:           ,
#TEMPCAL:              ,TCALZERO.TMX
#LABORATORY:           ,Mineral Physics
#OPERATOR:             ,PAG
#REMARK:               ,colorless amelia alb per to (010) & (001), sample 1, thin rectangle
#SAMPLE:               ,albite
#SAMPLE LENGTH /mm:    ,9.742
#MATERIAL:             ,sapphire stnd
#MEASMODE:             ,Standard Expansion
#PURGE GAS 1:          ,ARGON
#FLOW RATE 1 /(ml/min):,75
#M.RANGE /µm:          ,500
#CORR. CODE:           ,010
#RANGE:                ,20.0°C/3.0(K/min)/900.0°C
#SEGMENT:              ,S1/1
#SEG. 1:               ,20.0°C/3.0(K/min)/900.0°C

##Temp./°C,Time/min,dL/Lo
 22.73400,  0.00000, 2.3791e-005
 22.76100,  0.99667, 3.0053e-005
 22.76300,  1.99333, 2.8630e-005
 22.78700,  2.99000, 2.6261e-005
 22.86700,  3.98667, 2.3253e-005
 23.71700,  4.98333, 8.2241e-006
 26.25200,  5.98000,-1.6793e-005
 30.26400,  6.97667,-3.4030e-005
 34.94100,  7.97333,-3.0265e-005
 39.76300,  8.97000,-6.1675e-006
 44.59900,  9.96667, 2.8813e-005
 49.57100, 10.96333, 7.0152e-005
 54.70900, 11.96000, 1.1595e-004
 59.96600, 12.95667, 1.6698e-004
 65.28200, 13.95333, 2.2477e-004
 70.57700, 14.95000, 2.8694e-004
 75.82900, 15.94667, 3.5210e-004
 81.04200, 16.94333, 4.1924e-004
 86.20000, 17.94000, 4.8736e-004
 91.32600, 18.93667, 5.5749e-004
 96.36400, 19.93333, 6.2778e-004
101.362, 20.93000, 6.9885e-004
106.311, 21.92667, 7.6895e-004
111.227, 22.92333, 8.3964e-004
116.116, 23.92000, 9.1046e-004
120.978, 24.91667, 9.8056e-004
125.815, 25.91333, 1.0521e-003
130.599, 26.91000, 1.1271e-003
135.386, 27.90667, 1.2041e-003
140.125, 28.90333, 1.2812e-003
144.812, 29.90000, 1.3575e-003
149.5, 30.89667, 1.4317e-003
154.14, 31.89333, 1.5106e-003
158.728, 32.89000, 1.5910e-003
163.278, 33.88667, 1.6632e-003
167.856, 34.88333, 1.7347e-003
172.538, 35.88000, 1.8049e-003
177.275, 36.87667, 1.8720e-003
182.033, 37.87333, 1.9437e-003
186.733, 38.87000, 2.0172e-003
191.363, 39.86667, 2.0898e-003
195.934, 40.86333, 2.1617e-003
200.462, 41.86000, 2.2334e-003
204.946, 42.85667, 2.3048e-003
209.378, 43.85333, 2.3757e-003
213.762, 44.85000, 2.4459e-003
218.08, 45.84667, 2.5164e-003
222.375, 46.84333, 2.5855e-003
226.644, 47.84000, 2.6541e-003
230.871, 48.83667, 2.7227e-003
235.084, 49.83333, 2.7900e-003
239.257, 50.83000, 2.8588e-003
243.404, 51.82667, 2.9254e-003
247.533, 52.82333, 2.9868e-003
251.658, 53.82000, 3.0551e-003
255.747, 54.81667, 3.1215e-003
259.819, 55.81333, 3.1919e-003
263.865, 56.81000, 3.2582e-003
267.891, 57.80667, 3.3319e-003
271.882, 58.80333, 3.3896e-003
275.888, 59.80000, 3.4878e-003
279.869, 60.79667, 3.5468e-003
283.811, 61.79333, 3.5985e-003
287.741, 62.79000, 3.6596e-003
291.659, 63.78667, 3.7160e-003
295.562, 64.78333, 3.7737e-003
299.431, 65.78000, 3.8423e-003
303.27, 66.77667, 3.9055e-003
307.12, 67.77333, 3.9743e-003
310.956, 68.77000, 4.0348e-003
314.765, 69.76667, 4.1147e-003
318.543, 70.76333, 4.1733e-003
322.311, 71.76000, 4.2472e-003
326.08, 72.75667, 4.3273e-003
329.82, 73.75333, 4.3800e-003
333.542, 74.75000, 4.4371e-003
337.229, 75.74667, 4.5018e-003
340.93, 76.74333, 4.5637e-003
344.612, 77.74000, 4.6208e-003
348.269, 78.73667, 4.6861e-003
351.911, 79.73333, 4.7465e-003
355.512, 80.73000, 4.8079e-003
359.126, 81.72667, 4.8674e-003
362.723, 82.72333, 4.9288e-003
366.29, 83.72000, 4.9911e-003
369.839, 84.71667, 5.0521e-003
373.376, 85.71333, 5.1115e-003
376.917, 86.71000, 5.1730e-003
380.444, 87.70667, 5.2331e-003
383.947, 88.70333, 5.2929e-003
387.433, 89.70000, 5.3522e-003
390.91, 90.69667, 5.4072e-003
394.374, 91.69333, 5.4669e-003
397.816, 92.69000, 5.5250e-003
401.233, 93.68667, 5.5814e-003
404.654, 94.68333, 5.6369e-003
408.07, 95.68000, 5.6927e-003
411.466, 96.67667, 5.7516e-003
414.81, 97.67333, 5.8110e-003
418.119, 98.67000, 5.8661e-003
421.423, 99.66667, 5.9196e-003
424.849,100.663, 5.9716e-003
428.336,101.66, 6.0225e-003
431.829,102.657, 6.0759e-003
435.276,103.653, 6.1334e-003
438.675,104.65, 6.1872e-003
442.05,105.647, 6.2405e-003
445.374,106.643, 6.2932e-003
448.667,107.64, 6.3434e-003
451.943,108.637, 6.3966e-003
455.194,109.633, 6.4480e-003
458.424,110.63, 6.4985e-003
461.632,111.627, 6.5536e-003
464.815,112.623, 6.6030e-003
468.01,113.62, 6.6544e-003
471.189,114.617, 6.7047e-003
474.355,115.613, 6.7567e-003
477.494,116.61, 6.8065e-003
480.636,117.607, 6.8569e-003
483.777,118.603, 6.9071e-003
486.886,119.6, 6.9570e-003
490.02,120.597, 7.0070e-003
493.139,121.593, 7.0569e-003
496.24,122.59, 7.1068e-003
499.342,123.587, 7.1563e-003
502.436,124.583, 7.2059e-003
505.535,125.58, 7.2543e-003
508.609,126.577, 7.3021e-003
511.693,127.573, 7.3533e-003
514.756,128.57, 7.4030e-003
517.82,129.567, 7.4510e-003
520.869,130.563, 7.4998e-003
523.906,131.56, 7.5478e-003
526.946,132.557, 7.5959e-003
529.994,133.553, 7.6449e-003
533.006,134.55, 7.6940e-003
536.008,135.547, 7.7426e-003
539.015,136.543, 7.7904e-003
542.028,137.54, 7.8391e-003
545.026,138.537, 7.8908e-003
548.014,139.533, 7.9402e-003
550.952,140.53, 7.9924e-003
553.83,141.527, 8.0419e-003
556.77,142.523, 8.0913e-003
559.799,143.52, 8.1375e-003
562.883,144.517, 8.1854e-003
565.954,145.513, 8.2355e-003
568.984,146.51, 8.2835e-003
571.99,147.507, 8.3335e-003
574.969,148.503, 8.3810e-003
577.918,149.5, 8.4294e-003
580.848,150.497, 8.4766e-003
583.762,151.493, 8.5213e-003
586.66,152.49, 8.5710e-003
589.546,153.487, 8.6173e-003
592.424,154.483, 8.6644e-003
595.297,155.48, 8.7111e-003
598.166,156.477, 8.7560e-003
601.029,157.473, 8.8023e-003
603.86,158.47, 8.8480e-003
606.707,159.467, 8.8951e-003
609.551,160.463, 8.9424e-003
612.384,161.46, 8.9896e-003
615.214,162.457, 9.0376e-003
618.049,163.453, 9.0825e-003
620.875,164.45, 9.1287e-003
623.7,165.447, 9.1767e-003
626.519,166.443, 9.2216e-003
629.335,167.44, 9.2682e-003
632.123,168.437, 9.3157e-003
634.93,169.433, 9.3633e-003
637.73,170.43, 9.4079e-003
640.517,171.427, 9.4564e-003
643.31,172.423, 9.5002e-003
646.088,173.42, 9.5466e-003
648.839,174.417, 9.5929e-003
651.535,175.413, 9.6423e-003
654.215,176.41, 9.6885e-003
656.966,177.407, 9.7319e-003
659.795,178.403, 9.7753e-003
662.641,179.4, 9.8226e-003
665.468,180.397, 9.8682e-003
668.276,181.393, 9.9146e-003
671.061,182.39, 9.9615e-003
673.815,183.387, 1.0007e-002
676.556,184.383, 1.0053e-002
679.289,185.38, 1.0099e-002
682.004,186.377, 1.0148e-002
684.697,187.373, 1.0195e-002
687.38,188.37, 1.0242e-002
690.068,189.367, 1.0287e-002
692.728,190.363, 1.0335e-002
695.37,191.36, 1.0382e-002
697.989,192.357, 1.0427e-002
700.6,193.353, 1.0473e-002
703.221,194.35, 1.0517e-002
705.835,195.347, 1.0563e-002
708.452,196.343, 1.0609e-002
711.069,197.34, 1.0655e-002
713.689,198.337, 1.0701e-002
716.302,199.333, 1.0746e-002
718.9,200.33, 1.0791e-002
721.512,201.327, 1.0836e-002
724.131,202.323, 1.0882e-002
726.746,203.32, 1.0927e-002
729.339,204.317, 1.0974e-002
731.89,205.313, 1.1022e-002
734.411,206.31, 1.1069e-002
736.935,207.307, 1.1112e-002
739.548,208.303, 1.1156e-002
742.248,209.3, 1.1201e-002
744.957,210.297, 1.1247e-002
747.642,211.293, 1.1292e-002
750.322,212.29, 1.1338e-002
752.976,213.287, 1.1383e-002
755.612,214.283, 1.1429e-002
758.242,215.28, 1.1475e-002
760.851,216.277, 1.1521e-002
763.46,217.273, 1.1568e-002
766.064,218.27, 1.1619e-002
768.667,219.267, 1.1662e-002
771.243,220.263, 1.1707e-002
773.824,221.26, 1.1749e-002
776.402,222.257, 1.1797e-002
778.988,223.253, 1.1842e-002
781.549,224.25, 1.1885e-002
784.105,225.247, 1.1930e-002
786.633,226.243, 1.1976e-002
789.062,227.24, 1.2019e-002
791.448,228.237, 1.2063e-002
793.763,229.233, 1.2107e-002
795.989,230.23, 1.2153e-002
798.358,231.227, 1.2193e-002
800.716,232.223, 1.2237e-002
803.077,233.22, 1.2283e-002
805.458,234.217, 1.2324e-002
807.844,235.213, 1.2367e-002
810.195,236.21, 1.2406e-002
812.601,237.207, 1.2448e-002
815.109,238.203, 1.2490e-002
817.628,239.2, 1.2533e-002
820.122,240.197, 1.2576e-002
822.606,241.193, 1.2621e-002
825.106,242.19, 1.2667e-002
827.613,243.187, 1.2709e-002
830.156,244.183, 1.2751e-002
832.693,245.18, 1.2797e-002
835.251,246.177, 1.2840e-002
837.821,247.173, 1.2883e-002
840.394,248.17, 1.2927e-002
842.991,249.167, 1.2975e-002
845.584,250.163, 1.3019e-002
848.167,251.16, 1.3068e-002
850.756,252.157, 1.3108e-002
853.285,253.153, 1.3158e-002
855.828,254.15, 1.3202e-002
858.45,255.147, 1.3242e-002
860.982,256.143, 1.3286e-002
863.548,257.14, 1.3334e-002
866.163,258.137, 1.3378e-002
868.783,259.133, 1.3424e-002
871.387,260.13, 1.3468e-002
873.994,261.127, 1.3508e-002
876.576,262.123, 1.3553e-002
879.076,263.12, 1.3597e-002
881.561,264.117, 1.3642e-002
884.01,265.113, 1.3683e-002
886.19,266.11, 1.3719e-002
888.657,267.107, 1.3760e-002
891.262,268.103, 1.3807e-002
893.819,269.1, 1.3853e-002
896.304,270.097, 1.3896e-002
898.784,271.093, 1.3937e-002
901.227,272.09, 1.3980e-002
903.688,273.087, 1.4023e-002
906.089,274.083, 1.4061e-002
908.404,275.08, 1.4106e-002
910.542,276.077, 1.4148e-002
912.46,277.073, 1.4182e-002
914.084,278.07, 1.4217e-002
915.863,279.067, 1.4240e-002
918.403,280.063, 1.4273e-002
920.975,281.06, 1.4317e-002
923.604,282.057, 1.4359e-002
926.086,283.053, 1.4402e-002
928.544,284.05, 1.4443e-002
930.972,285.047, 1.4481e-002
933.527,286.043, 1.4516e-002
936.068,287.04, 1.4558e-002
938.573,288.037, 1.4600e-002
941.138,289.033, 1.4640e-002
943.792,290.03, 1.4677e-002
946.411,291.027, 1.4722e-002
948.889,292.023, 1.4760e-002
951.465,293.02, 1.4794e-002
952.241,293.302, 1.4813e-002

File: albAmel100r1.csv
#EXPORTTYPE:           ,DATA ALL
#FILE:                 ,albAmel100run1.ngb-sle
#FORMAT:               ,NETZSCH5
#FTYPE:                ,ANSI
#IDENTITY:             ,albite amelia 100
#DECIMAL:              ,POINT
#SEPARATOR:            ,COMMA
#MTYPE:                ,DIL
#INSTRUMENT:           ,NETZSCH DIL 402C
#PROJECT:              ,feldspar
#DATE/TIME:            ,8/12/2019 9:43:37 AM (UTC-5)
#CORR. FILE:           ,
#TEMPCAL:              ,TCALZERO.TMX
#LABORATORY:           ,Mineral Physics
#OPERATOR:             ,PAG
#REMARK:               ,colorless amelia alb per to (010) & (001), sample 1, thin rectangle
#SAMPLE:               ,albite
#SAMPLE LENGTH /mm:    ,11.13
#MATERIAL:             ,sapphire stnd
#MEASMODE:             ,Standard Expansion
#PURGE GAS 1:          ,ARGON
#FLOW RATE 1 /(ml/min):,75
#M.RANGE /µm:          ,500
#CORR. CODE:           ,010
#RANGE:                ,20.0°C/3.0(K/min)/1000.0°C
#SEGMENT:              ,S1/1
#SEG. 1:               ,20.0°C/3.0(K/min)/1000.0°C

##Temp./°C,Time/min,dL/Lo
  22.81000,  0.00000, 2.4334e-005
  22.84700,  1.10500, 2.6598e-005
  22.80500,  2.21000, 2.6836e-005
  22.76100,  3.31500, 2.5601e-005
  22.95300,  4.42000, 2.0168e-005
  24.73900,  5.52500, 4.8883e-006
  28.73400,  6.63000, 2.0812e-006
  34.09700,  7.73500, 3.4165e-005
  39.73000,  8.84000, 9.4917e-005
  45.37700,  9.94500, 1.7940e-004
  51.10700, 11.05000, 2.7252e-004
  57.04400, 12.15500, 3.7345e-004
  63.05100, 13.26000, 4.8206e-004
  69.06300, 14.36500, 5.9949e-004
  74.99300, 15.47000, 7.2207e-004
  80.85500, 16.57500, 8.4574e-004
  86.63300, 17.68000, 9.7072e-004
  92.31600, 18.78500, 1.0950e-003
  97.91200, 19.89000, 1.2197e-003
 103.44, 20.99500, 1.3436e-003
 108.894, 22.10000, 1.4662e-003
 114.328, 23.20500, 1.5894e-003
 119.697, 24.31000, 1.7114e-003
 125.025, 25.41500, 1.8324e-003
 130.301, 26.52000, 1.9533e-003
 135.543, 27.62500, 2.0731e-003
 140.775, 28.73000, 2.1928e-003
 145.962, 29.83500, 2.3122e-003
 151.135, 30.94000, 2.4312e-003
 156.254, 32.04500, 2.5492e-003
 161.368, 33.15000, 2.6670e-003
 166.425, 34.25500, 2.7841e-003
 171.481, 35.36000, 2.9010e-003
 176.509, 36.46500, 3.0174e-003
 181.49, 37.57000, 3.1346e-003
 186.46, 38.67500, 3.2508e-003
 191.411, 39.78000, 3.3649e-003
 196.315, 40.88500, 3.4793e-003
 201.197, 41.99000, 3.5935e-003
 206.053, 43.09500, 3.7069e-003
 210.879, 44.20000, 3.8206e-003
 215.681, 45.30500, 3.9329e-003
 220.454, 46.41000, 4.0447e-003
 225.192, 47.51500, 4.1561e-003
 229.908, 48.62000, 4.2659e-003
 234.597, 49.72500, 4.3767e-003
 239.254, 50.83000, 4.4868e-003
 243.888, 51.93500, 4.5958e-003
 248.471, 53.04000, 4.7043e-003
 253.057, 54.14500, 4.8131e-003
 257.597, 55.25000, 4.9206e-003
 262.117, 56.35500, 5.0271e-003
 266.623, 57.46000, 5.1345e-003
 271.094, 58.56500, 5.2404e-003
 275.545, 59.67000, 5.3456e-003
 279.961, 60.77500, 5.4499e-003
 284.364, 61.88000, 5.5547e-003
 288.725, 62.98500, 5.6607e-003
 293.049, 64.09000, 5.7626e-003
 297.376, 65.19500, 5.8666e-003
 301.673, 66.30000, 5.9664e-003
 305.952, 67.40500, 6.0680e-003
 310.194, 68.51000, 6.1686e-003
 314.432, 69.61500, 6.2687e-003
 318.635, 70.72000, 6.3688e-003
 322.814, 71.82500, 6.4680e-003
 326.975, 72.93000, 6.5684e-003
 331.105, 74.03500, 6.6666e-003
 335.225, 75.14000, 6.7654e-003
 339.331, 76.24500, 6.8636e-003
 343.391, 77.35000, 6.9609e-003
 347.449, 78.45500, 7.0574e-003
 351.483, 79.56000, 7.1522e-003
 355.52, 80.66500, 7.2511e-003
 359.506, 81.77000, 7.3446e-003
 363.479, 82.87500, 7.4409e-003
 367.401, 83.98000, 7.5399e-003
 371.266, 85.08500, 7.6344e-003
 375.21, 86.19000, 7.7280e-003
 379.266, 87.29500, 7.8217e-003
 383.357, 88.40000, 7.9169e-003
 387.409, 89.50500, 8.0147e-003
 391.385, 90.61000, 8.1105e-003
 395.317, 91.71500, 8.2046e-003
 399.201, 92.82000, 8.2974e-003
 403.04, 93.92500, 8.3898e-003
 406.847, 95.03000, 8.4821e-003
 410.626, 96.13500, 8.5726e-003
 414.38, 97.24000, 8.6632e-003
 418.102, 98.34500, 8.7523e-003
 421.798, 99.45000, 8.8422e-003
 425.489,100.555, 8.9287e-003
 429.164,101.66, 9.0175e-003
 432.825,102.765, 9.1053e-003
 436.472,103.87, 9.1942e-003
 440.126,104.975, 9.2812e-003
 443.757,106.08, 9.3689e-003
 447.368,107.185, 9.4558e-003
 450.967,108.29, 9.5416e-003
 454.563,109.395, 9.6281e-003
 458.147,110.5, 9.7141e-003
 461.717,111.605, 9.8005e-003
 465.278,112.71, 9.8866e-003
 468.819,113.815, 9.9717e-003
 472.368,114.92, 1.0058e-002
 475.884,116.025, 1.0143e-002
 479.413,117.13, 1.0228e-002
 482.91,118.235, 1.0313e-002
 486.387,119.34, 1.0398e-002
 489.82,120.445, 1.0484e-002
 493.219,121.55, 1.0569e-002
 496.671,122.655, 1.0650e-002
 500.261,123.76, 1.0734e-002
 503.896,124.865, 1.0819e-002
 507.472,125.97, 1.0907e-002
 510.998,127.075, 1.0995e-002
 514.461,128.18, 1.1073e-002
 517.908,129.285, 1.1156e-002
 521.316,130.39, 1.1239e-002
 524.715,131.495, 1.1321e-002
 528.097,132.6, 1.1402e-002
 531.446,133.705, 1.1484e-002
 534.772,134.81, 1.1565e-002
 538.097,135.915, 1.1645e-002
 541.401,137.02, 1.1728e-002
 544.701,138.125, 1.1807e-002
 548.01,139.23, 1.1885e-002
 551.294,140.335, 1.1970e-002
 554.554,141.44, 1.2045e-002
 557.826,142.545, 1.2125e-002
 561.085,143.65, 1.2203e-002
 564.361,144.755, 1.2283e-002
 567.627,145.86, 1.2365e-002
 570.857,146.965, 1.2440e-002
 574.086,148.07, 1.2519e-002
 577.312,149.175, 1.2596e-002
 580.521,150.28, 1.2673e-002
 583.735,151.385, 1.2750e-002
 586.956,152.49, 1.2828e-002
 590.153,153.595, 1.2907e-002
 593.345,154.7, 1.2984e-002
 596.536,155.805, 1.3061e-002
 599.711,156.91, 1.3143e-002
 602.806,158.015, 1.3221e-002
 605.911,159.12, 1.3296e-002
 609.111,160.225, 1.3372e-002
 612.386,161.33, 1.3449e-002
 615.651,162.435, 1.3530e-002
 618.877,163.54, 1.3607e-002
 622.072,164.645, 1.3685e-002
 625.24,165.75, 1.3763e-002
 628.4,166.855, 1.3840e-002
 631.538,167.96, 1.3918e-002
 634.65,169.065, 1.3995e-002
 637.734,170.17, 1.4072e-002
 640.829,171.275, 1.4148e-002
 643.904,172.38, 1.4224e-002
 646.961,173.485, 1.4300e-002
 650.032,174.59, 1.4376e-002
 653.103,175.695, 1.4452e-002
 656.148,176.8, 1.4527e-002
 659.172,177.905, 1.4602e-002
 662.217,179.01, 1.4677e-002
 665.249,180.115, 1.4753e-002
 668.281,181.22, 1.4828e-002
 671.299,182.325, 1.4903e-002
 674.303,183.43, 1.4978e-002
 677.311,184.535, 1.5052e-002
 680.327,185.64, 1.5129e-002
 683.317,186.745, 1.5204e-002
 686.254,187.85, 1.5279e-002
 689.13,188.955, 1.5354e-002
 691.991,190.06, 1.5425e-002
 694.958,191.165, 1.5497e-002
 697.952,192.27, 1.5572e-002
 700.965,193.375, 1.5646e-002
 703.949,194.48, 1.5720e-002
 706.924,195.585, 1.5796e-002
 709.871,196.69, 1.5869e-002
 712.806,197.795, 1.5942e-002
 715.729,198.9, 1.6016e-002
 718.629,200.005, 1.6088e-002
 721.537,201.11, 1.6160e-002
 724.431,202.215, 1.6230e-002
 727.332,203.32, 1.6305e-002
 730.224,204.425, 1.6378e-002
 733.115,205.53, 1.6452e-002
 735.988,206.635, 1.6524e-002
 738.874,207.74, 1.6598e-002
 741.743,208.845, 1.6670e-002
 744.632,209.95, 1.6744e-002
 747.504,211.055, 1.6818e-002
 750.396,212.16, 1.6890e-002
 753.291,213.265, 1.6964e-002
 756.165,214.37, 1.7038e-002
 758.994,215.475, 1.7113e-002
 761.751,216.58, 1.7185e-002
 764.543,217.685, 1.7257e-002
 767.465,218.79, 1.7330e-002
 770.415,219.895, 1.7403e-002
 773.336,221, 1.7478e-002
 776.253,222.105, 1.7551e-002
 779.171,223.21, 1.7628e-002
 782.023,224.315, 1.7699e-002
 784.88,225.42, 1.7772e-002
 787.631,226.525, 1.7846e-002
 790.323,227.63, 1.7917e-002
 793.005,228.735, 1.7986e-002
 795.608,229.84, 1.8053e-002
 798.161,230.945, 1.8121e-002
 800.913,232.05, 1.8191e-002
 803.571,233.155, 1.8261e-002
 806.175,234.26, 1.8331e-002
 808.788,235.365, 1.8398e-002
 811.397,236.47, 1.8465e-002
 814.075,237.575, 1.8534e-002
 816.764,238.68, 1.8603e-002
 819.497,239.785, 1.8678e-002
 822.174,240.89, 1.8751e-002
 824.836,241.995, 1.8821e-002
 827.601,243.1, 1.8890e-002
 830.46,244.205, 1.8962e-002
 833.334,245.31, 1.9035e-002
 836.21,246.415, 1.9108e-002
 839.072,247.52, 1.9182e-002
 841.932,248.625, 1.9256e-002
 844.82,249.73, 1.9332e-002
 847.689,250.835, 1.9405e-002
 850.545,251.94, 1.9478e-002
 853.392,253.045, 1.9547e-002
 856.338,254.15, 1.9622e-002
 859.225,255.255, 1.9700e-002
 861.922,256.36, 1.9771e-002
 864.674,257.465, 1.9842e-002
 867.479,258.57, 1.9916e-002
 870.238,259.675, 1.9990e-002
 872.965,260.78, 2.0061e-002
 875.46,261.885, 2.0131e-002
 877.859,262.99, 2.0198e-002
 880.687,264.095, 2.0269e-002
 883.566,265.2, 2.0345e-002
 886.379,266.305, 2.0420e-002
 889.218,267.41, 2.0495e-002
 892.034,268.515, 2.0569e-002
 894.843,269.62, 2.0644e-002
 897.612,270.725, 2.0719e-002
 900.345,271.83, 2.0792e-002
 903.062,272.935, 2.0864e-002
 905.682,274.04, 2.0937e-002
 908.281,275.145, 2.1008e-002
 910.745,276.25, 2.1075e-002
 913.162,277.355, 2.1144e-002
 915.062,278.46, 2.1205e-002
 917.569,279.565, 2.1264e-002
 920.259,280.67, 2.1336e-002
 923.204,281.775, 2.1415e-002
 926.189,282.88, 2.1495e-002
 928.831,283.985, 2.1574e-002
 931.379,285.09, 2.1645e-002
 934.184,286.195, 2.1721e-002
 937.146,287.3, 2.1801e-002
 940.075,288.405, 2.1881e-002
 942.995,289.51, 2.1963e-002
 945.936,290.615, 2.2043e-002
 948.873,291.72, 2.2127e-002
 951.78,292.825, 2.2205e-002
 954.796,293.93, 2.2291e-002
 957.707,295.035, 2.2376e-002
 960.627,296.14, 2.2460e-002
 963.531,297.245, 2.2544e-002
 966.406,298.35, 2.2629e-002
 969.324,299.455, 2.2716e-002
 972.196,300.56, 2.2806e-002
 975.238,301.665, 2.2900e-002
 978.033,302.77, 2.2989e-002
 981.044,303.875, 2.3088e-002
 983.942,304.98, 2.3183e-002
 986.928,306.085, 2.3286e-002
 989.854,307.19, 2.3386e-002
 992.95,308.295, 2.3493e-002
 995.965,309.4, 2.3604e-002
 998.908,310.505, 2.3715e-002
1001.72,311.61, 2.3826e-002
1004.77,312.715, 2.3940e-002
1007.58,313.82, 2.4060e-002
1010.64,314.925, 2.4178e-002
1013.95,316.03, 2.4311e-002
1017.28,317.135, 2.4445e-002
1020.42,318.24, 2.4581e-002
1023.51,319.345, 2.4717e-002
1026.37,320.45, 2.4851e-002
1028.96,321.555, 2.4976e-002
1031.71,322.66, 2.5104e-002
1034.57,323.765, 2.5229e-002
1037.57,324.87, 2.5360e-002
1040.67,325.975, 2.5492e-002
1042.56,326.647, 2.5571e-002