Folder: thermal-expansion/data_backup/14.1mm-083019

Note: README.md
# thermal-expansion
Calculates linear and volume alphas from dilatometer data (Netzsch DIL-402c) by curve fitting

File: ExpDat_sapph14.1mm08302019.csv
#EXPORTTYPE:           ,DATA ALL
#FILE:                 ,sapph14mm08302019.ngb-cle
#FORMAT:               ,NETZSCH5
#FTYPE:                ,ANSI
#IDENTITY:             ,sapph stnd 14
#DECIMAL:              ,POINT
#SEPARATOR:            ,COMMA
#MTYPE:                ,DIL
#INSTRUMENT:           ,NETZSCH DIL 402C
#PROJECT:              ,feldspar
#DATE/TIME:            ,8/30/2019 10:03:28 AM (UTC-5)
#CORR. FILE:           ,
#TEMPCAL:              ,TCALZERO.TMX
#LABORATORY:           ,Mineral Physics
#OPERATOR:             ,PAG
#REMARK:               ,bare, norm start, for bytown and rocks
#SAMPLE:               ,sapphire
#SAMPLE LENGTH /mm:    ,14.059
#MATERIAL:             ,sapphire stnd
#MEASMODE:             ,Standard Expansion
#PURGE GAS 1:          ,ARGON
#FLOW RATE 1 /(ml/min):,75
#M.RANGE /µm:          ,500
#CORR. CODE:           ,010
#RANGE:                ,20.0°C/3.0(K/min)/1350.0°C/25.0(K/min)/900.0°C/
#SEGMENT:              ,S1-2/2
#SEG. 1:               ,20.0°C/3.0(K/min)/1350.0°C
#SEG. 2:               ,1350.0°C/25.0(K/min)/900.0°C

##Temp./°C,Time/min,dL/Lo,Segment
  22.04700,  0.00000, 1.8881e-005,1
  22.07400,  1.62500, 1.6851e-005,1
  22.09900,  3.25000, 1.5367e-005,1
  23.47500,  4.87500, 6.0163e-006,1
  28.97100,  6.50000,-1.0679e-006,1
  36.56000,  8.12500, 3.1423e-005,1
  44.38900,  9.75000, 9.3087e-005,1
  52.60800, 11.37500, 1.6877e-004,1
  61.20600, 13.00000, 2.6187e-004,1
  69.87000, 14.62500, 3.6556e-004,1
  78.46100, 16.25000, 4.7549e-004,1
  86.95000, 17.87500, 5.8907e-004,1
  95.31300, 19.50000, 7.0564e-004,1
 103.535, 21.12500, 8.2330e-004,1
 111.672, 22.75000, 9.4114e-004,1
 119.716, 24.37500, 1.0582e-003,1
 127.668, 26.00000, 1.1746e-003,1
 135.535, 27.62500, 1.2913e-003,1
 143.298, 29.25000, 1.4073e-003,1
 150.993, 30.87500, 1.5220e-003,1
 158.625, 32.50000, 1.6363e-003,1
 166.188, 34.12500, 1.7495e-003,1
 173.696, 35.75000, 1.8625e-003,1
 181.131, 37.37500, 1.9753e-003,1
 188.517, 39.00000, 2.0871e-003,1
 195.84, 40.62500, 2.1984e-003,1
 203.09, 42.25000, 2.3083e-003,1
 210.271, 43.87500, 2.4179e-003,1
 217.392, 45.50000, 2.5262e-003,1
 224.435, 47.12500, 2.6344e-003,1
 231.417, 48.75000, 2.7411e-003,1
 238.362, 50.37500, 2.8477e-003,1
 245.223, 52.00000, 2.9529e-003,1
 252.01, 53.62500, 3.0590e-003,1
 258.688, 55.25000, 3.1660e-003,1
 265.298, 56.87500, 3.2680e-003,1
 272.104, 58.50000, 3.3673e-003,1
 278.998, 60.12500, 3.4695e-003,1
 285.746, 61.75000, 3.5728e-003,1
 292.348, 63.37500, 3.6742e-003,1
 298.86, 65.00000, 3.7749e-003,1
 305.227, 66.62500, 3.8740e-003,1
 311.509, 68.25000, 3.9718e-003,1
 317.703, 69.87500, 4.0680e-003,1
 323.844, 71.50000, 4.1632e-003,1
 329.933, 73.12500, 4.2575e-003,1
 335.968, 74.75000, 4.3508e-003,1
 341.976, 76.37500, 4.4436e-003,1
 347.926, 78.00000, 4.5353e-003,1
 353.827, 79.62500, 4.6263e-003,1
 359.703, 81.25000, 4.7167e-003,1
 365.544, 82.87500, 4.8068e-003,1
 371.331, 84.50000, 4.8959e-003,1
 377.118, 86.12500, 4.9848e-003,1
 382.844, 87.75000, 5.0730e-003,1
 388.546, 89.37500, 5.1616e-003,1
 394.193, 91.00000, 5.2490e-003,1
 399.812, 92.62500, 5.3354e-003,1
 405.39, 94.25000, 5.4217e-003,1
 410.939, 95.87500, 5.5071e-003,1
 416.456, 97.50000, 5.5924e-003,1
 421.942, 99.12500, 5.6771e-003,1
 427.397,100.75, 5.7612e-003,1
 432.803,102.375, 5.8448e-003,1
 438.181,104, 5.9281e-003,1
 443.518,105.625, 6.0110e-003,1
 448.831,107.25, 6.0932e-003,1
 454.11,108.875, 6.1762e-003,1
 459.294,110.5, 6.2611e-003,1
 464.44,112.125, 6.3412e-003,1
 469.801,113.75, 6.4202e-003,1
 475.245,115.375, 6.5022e-003,1
 480.58,117, 6.5847e-003,1
 485.834,118.625, 6.6665e-003,1
 491.008,120.25, 6.7470e-003,1
 496.1,121.875, 6.8264e-003,1
 501.135,123.5, 6.9047e-003,1
 506.139,125.125, 6.9830e-003,1
 511.082,126.75, 7.0599e-003,1
 516.018,128.375, 7.1371e-003,1
 520.931,130, 7.2132e-003,1
 525.813,131.625, 7.2900e-003,1
 530.697,133.25, 7.3661e-003,1
 535.565,134.875, 7.4421e-003,1
 540.408,136.5, 7.5176e-003,1
 545.238,138.125, 7.5937e-003,1
 550.056,139.75, 7.6688e-003,1
 554.83,141.375, 7.7443e-003,1
 559.608,143, 7.8190e-003,1
 564.37,144.625, 7.8939e-003,1
 569.109,146.25, 7.9681e-003,1
 573.826,147.875, 8.0431e-003,1
 578.446,149.5, 8.1188e-003,1
 583.079,151.125, 8.1914e-003,1
 587.906,152.75, 8.2637e-003,1
 592.753,154.375, 8.3390e-003,1
 597.523,156, 8.4140e-003,1
 602.231,157.625, 8.4879e-003,1
 606.889,159.25, 8.5617e-003,1
 611.512,160.875, 8.6345e-003,1
 616.089,162.5, 8.7066e-003,1
 620.67,164.125, 8.7794e-003,1
 625.221,165.75, 8.8513e-003,1
 629.751,167.375, 8.9231e-003,1
 634.27,169, 8.9948e-003,1
 638.791,170.625, 9.0668e-003,1
 643.249,172.25, 9.1400e-003,1
 647.64,173.875, 9.2116e-003,1
 652.135,175.5, 9.2815e-003,1
 656.766,177.125, 9.3528e-003,1
 661.344,178.75, 9.4248e-003,1
 665.875,180.375, 9.4968e-003,1
 670.336,182, 9.5671e-003,1
 674.773,183.625, 9.6376e-003,1
 679.193,185.25, 9.7082e-003,1
 683.573,186.875, 9.7784e-003,1
 687.916,188.5, 9.8473e-003,1
 692.237,190.125, 9.9174e-003,1
 696.521,191.75, 9.9859e-003,1
 700.774,193.375, 1.0055e-002,1
 705.008,195, 1.0122e-002,1
 709.247,196.625, 1.0189e-002,1
 713.49,198.25, 1.0257e-002,1
 717.73,199.875, 1.0325e-002,1
 721.921,201.5, 1.0394e-002,1
 726.046,203.125, 1.0462e-002,1
 730.318,204.75, 1.0527e-002,1
 734.689,206.375, 1.0596e-002,1
 739.03,208, 1.0666e-002,1
 743.33,209.625, 1.0734e-002,1
 747.613,211.25, 1.0802e-002,1
 751.866,212.875, 1.0870e-002,1
 756.105,214.5, 1.0938e-002,1
 760.329,216.125, 1.1006e-002,1
 764.524,217.75, 1.1074e-002,1
 768.716,219.375, 1.1141e-002,1
 772.914,221, 1.1208e-002,1
 777.097,222.625, 1.1276e-002,1
 781.265,224.25, 1.1344e-002,1
 785.423,225.875, 1.1412e-002,1
 789.337,227.5, 1.1480e-002,1
 792.989,229.125, 1.1543e-002,1
 796.848,230.75, 1.1603e-002,1
 800.847,232.375, 1.1669e-002,1
 804.631,234, 1.1733e-002,1
 808.37,235.625, 1.1793e-002,1
 812.327,237.25, 1.1857e-002,1
 816.318,238.875, 1.1920e-002,1
 820.365,240.5, 1.1985e-002,1
 824.418,242.125, 1.2049e-002,1
 828.49,243.75, 1.2115e-002,1
 832.52,245.375, 1.2182e-002,1
 836.664,247, 1.2247e-002,1
 840.924,248.625, 1.2314e-002,1
 845.261,250.25, 1.2382e-002,1
 849.559,251.875, 1.2451e-002,1
 853.856,253.5, 1.2520e-002,1
 858.12,255.125, 1.2588e-002,1
 862.37,256.75, 1.2656e-002,1
 866.627,258.375, 1.2725e-002,1
 870.855,260, 1.2793e-002,1
 875.001,261.625, 1.2861e-002,1
 878.713,263.25, 1.2926e-002,1
 882.406,264.875, 1.2984e-002,1
 886.685,266.5, 1.3053e-002,1
 890.56,268.125, 1.3120e-002,1
 894.526,269.75, 1.3182e-002,1
 898.568,271.375, 1.3246e-002,1
 902.529,273, 1.3309e-002,1
 906.37,274.625, 1.3372e-002,1
 909.956,276.25, 1.3432e-002,1
 912.597,277.875, 1.3482e-002,1
 916.628,279.5, 1.3535e-002,1
 920.955,281.125, 1.3606e-002,1
 925.106,282.75, 1.3671e-002,1
 929.083,284.375, 1.3737e-002,1
 933.229,286, 1.3801e-002,1
 937.621,287.625, 1.3872e-002,1
 941.607,289.25, 1.3936e-002,1
 945.976,290.875, 1.4003e-002,1
 950.5,292.5, 1.4075e-002,1
 954.883,294.125, 1.4145e-002,1
 959.155,295.75, 1.4214e-002,1
 963.602,297.375, 1.4286e-002,1
 967.976,299, 1.4356e-002,1
 972.44,300.625, 1.4429e-002,1
 976.822,302.25, 1.4499e-002,1
 981.18,303.875, 1.4572e-002,1
 985.418,305.5, 1.4645e-002,1
 989.64,307.125, 1.4714e-002,1
 993.978,308.75, 1.4784e-002,1
 998.418,310.375, 1.4855e-002,1
1002.87,312, 1.4927e-002,1
1007.28,313.625, 1.4998e-002,1
1011.61,315.25, 1.5068e-002,1
1015.8,316.875, 1.5135e-002,1
1020.26,318.5, 1.5205e-002,1
1024.74,320.125, 1.5277e-002,1
1029,321.75, 1.5348e-002,1
1033.33,323.375, 1.5419e-002,1
1037.86,325, 1.5491e-002,1
1042.26,326.625, 1.5564e-002,1
1046.69,328.25, 1.5636e-002,1
1051.07,329.875, 1.5707e-002,1
1055.51,331.5, 1.5778e-002,1
1059.89,333.125, 1.5850e-002,1
1064.16,334.75, 1.5921e-002,1
1068.56,336.375, 1.5990e-002,1
1072.83,338, 1.6063e-002,1
1077.13,339.625, 1.6133e-002,1
1081.59,341.25, 1.6207e-002,1
1085.97,342.875, 1.6278e-002,1
1090.48,344.5, 1.6352e-002,1
1094.95,346.125, 1.6425e-002,1
1099.38,347.75, 1.6498e-002,1
1103.53,349.375, 1.6565e-002,1
1107.66,351, 1.6633e-002,1
1111.98,352.625, 1.6700e-002,1
1116.9,354.25, 1.6781e-002,1
1120.46,355.875, 1.6842e-002,1
1125.45,357.5, 1.6920e-002,1
1130.29,359.125, 1.7000e-002,1
1134.82,360.75, 1.7073e-002,1
1139.44,362.375, 1.7147e-002,1
1143.93,364, 1.7218e-002,1
1148.47,365.625, 1.7289e-002,1
1153.93,367.25, 1.7373e-002,1
1158.06,368.875, 1.7442e-002,1
1162.61,370.5, 1.7510e-002,1
1166.67,372.125, 1.7575e-002,1
1171.33,373.75, 1.7646e-002,1
1175.83,375.375, 1.7715e-002,1
1180.34,377, 1.7784e-002,1
1184.8,378.625, 1.7849e-002,1
1189.51,380.25, 1.7922e-002,1
1194.51,381.875, 1.7990e-002,1
1201.11,383.5, 1.8096e-002,1
1205.24,385.125, 1.8161e-002,1
1209.07,386.75, 1.8220e-002,1
1213.05,388.375, 1.8282e-002,1
1217.28,390, 1.8347e-002,1
1221.1,391.625, 1.8406e-002,1
1226.51,393.25, 1.8487e-002,1
1231.89,394.875, 1.8570e-002,1
1236.95,396.5, 1.8652e-002,1
1241.95,398.125, 1.8728e-002,1
1246.09,399.75, 1.8798e-002,1
1250.22,401.375, 1.8862e-002,1
1255.03,403, 1.8932e-002,1
1259.46,404.625, 1.9002e-002,1
1264.02,406.25, 1.9072e-002,1
1268.53,407.875, 1.9140e-002,1
1273.33,409.5, 1.9211e-002,1
1277.67,411.125, 1.9275e-002,1
1282.6,412.75, 1.9346e-002,1
1287.35,414.375, 1.9422e-002,1
1292.07,416, 1.9492e-002,1
1296.83,417.625, 1.9565e-002,1
1301.38,419.25, 1.9634e-002,1
1305.97,420.875, 1.9700e-002,1
1310.58,422.5, 1.9772e-002,1
1315.08,424.125, 1.9838e-002,1
1319.52,425.75, 1.9902e-002,1
1324.07,427.375, 1.9969e-002,1
1328.84,429, 2.0043e-002,1
1333.56,430.625, 2.0118e-002,1
1338.06,432.25, 2.0193e-002,1
1342.27,433.875, 2.0263e-002,1
1347.05,435.5, 2.0342e-002,1
1351.43,437.125, 2.0416e-002,1
1356.34,438.75, 2.0495e-002,1
1361.28,440.375, 2.0579e-002,1
1365.78,442, 2.0655e-002,1
1370.11,443.438, 2.0727e-002,2
1364.37,444.188, 2.0743e-002,2
1348.24,444.938, 2.0565e-002,2
1330.36,445.688, 2.0310e-002,2
1312.64,446.438, 2.0045e-002,2
1295.24,447.188, 1.9783e-002,2
1277.7,447.938, 1.9519e-002,2
1259.86,448.688, 1.9249e-002,2
1241.87,449.438, 1.8973e-002,2
1223.97,450.188, 1.8694e-002,2
1206.05,450.938, 1.8416e-002,2
1188.11,451.688, 1.8137e-002,2
1170.25,452.438, 1.7855e-002,2
1152.55,453.188, 1.7576e-002,2
1134.9,453.938, 1.7298e-002,2
1117.27,454.688, 1.7018e-002,2
1099.67,455.438, 1.6741e-002,2
1082.03,456.188, 1.6463e-002,2
1064.38,456.938, 1.6184e-002,2
1046.82,457.688, 1.5905e-002,2
1029.46,458.438, 1.5628e-002,2
1012.33,459.188, 1.5356e-002,2
 995.318,459.938, 1.5087e-002,2
 978.33,460.688, 1.4819e-002,2
 964.755,461.288, 1.4605e-002,2

File: fmt001sAr1-11.2mm-081619.csv
#EXPORTTYPE:           ,DATA ALL
#FILE:                 ,fmtl001Arun1.ngb-sle
#FORMAT:               ,NETZSCH5
#FTYPE:                ,ANSI
#IDENTITY:             ,fmt olig base
#DECIMAL:              ,POINT
#SEPARATOR:            ,COMMA
#MTYPE:                ,DIL
#INSTRUMENT:           ,NETZSCH DIL 402C
#PROJECT:              ,feldspar
#DATE/TIME:            ,8/16/2019 10:53:52 AM (UTC-5)
#CORR. FILE:           ,
#TEMPCAL:              ,TCALZERO.TMX
#LABORATORY:           ,Mineral Physics
#OPERATOR:             ,PAG
#REMARK:               ,bare, norm start, for oligoclase fmt base 11.19 by 8.8 mm, probably 001
#SAMPLE:               ,fmt001A
#SAMPLE LENGTH /mm:    ,11.19
#MATERIAL:             ,sapphire stnd
#MEASMODE:             ,Standard Expansion
#PURGE GAS 1:          ,ARGON
#FLOW RATE 1 /(ml/min):,75
#M.RANGE /µm:          ,500
#CORR. CODE:           ,010
#RANGE:                ,20.0°C/3.0(K/min)/990.0°C
#SEGMENT:              ,S1/1
#SEG. 1:               ,20.0°C/3.0(K/min)/990.0°C

##Temp./°C,Time/min,dL/Lo,Alpha/(1/K)
  22.05900,  0.00000, 1.8974e-005,-4.6302e-006
  26.55900,  5.87915,-1.3150e-005,-2.8161e-007
  31.05900,  6.91107,-3.6424e-006, 4.6278e-006
  35.55900,  7.83989, 2.5546e-005, 8.3745e-006
  40.05900,  8.75401, 6.8907e-005, 1.0484e-005
  44.55900,  9.66688, 1.1962e-004, 1.1856e-005
  49.05900, 10.56038, 1.7504e-004, 1.2829e-005
  53.55900, 11.42549, 2.3463e-004, 1.3514e-005
  58.05900, 12.27133, 2.9692e-004, 1.4377e-005
  62.55900, 13.10724, 3.6374e-004, 1.5297e-005
  67.05900, 13.94397, 4.3399e-004, 1.6304e-005
  71.55900, 14.78468, 5.0795e-004, 1.6670e-005
  76.05900, 15.62872, 5.8441e-004, 1.6912e-005
  80.55900, 16.47804, 6.6340e-004, 1.7928e-005
  85.05900, 17.33288, 7.4323e-004, 1.7891e-005
  89.55900, 18.20004, 8.2444e-004, 1.8227e-005
  94.05900, 19.07422, 9.0717e-004, 1.8543e-005
  98.55900, 19.95553, 9.9060e-004, 1.8244e-005
 103.059, 20.84382, 1.0746e-003, 1.8340e-005
 107.559, 21.73968, 1.1592e-003, 1.9082e-005
 112.059, 22.64352, 1.2440e-003, 1.9574e-005
 116.559, 23.55207, 1.3299e-003, 1.9685e-005
 121.059, 24.46851, 1.4154e-003, 1.9354e-005
 125.559, 25.38789, 1.5020e-003, 1.8904e-005
 130.059, 26.31589, 1.5888e-003, 1.8828e-005
 134.559, 27.24730, 1.6747e-003, 1.9255e-005
 139.059, 28.18486, 1.7620e-003, 1.9232e-005
 143.559, 29.12450, 1.8487e-003, 1.8844e-005
 148.059, 30.06576, 1.9358e-003, 1.9508e-005
 152.559, 31.01625, 2.0227e-003, 1.9485e-005
 157.059, 31.97410, 2.1103e-003, 1.9600e-005
 161.559, 32.93434, 2.1983e-003, 1.9825e-005
 166.059, 33.89992, 2.2859e-003, 1.9716e-005
 170.559, 34.87032, 2.3744e-003, 1.9393e-005
 175.059, 35.84816, 2.4625e-003, 1.9352e-005
 179.559, 36.83433, 2.5515e-003, 1.9516e-005
 184.059, 37.82229, 2.6400e-003, 1.9362e-005
 188.559, 38.81409, 2.7290e-003, 1.9161e-005
 193.059, 39.81211, 2.8175e-003, 2.0403e-005
 197.559, 40.81465, 2.9066e-003, 1.9336e-005
 202.059, 41.82476, 2.9960e-003, 1.9961e-005
 206.559, 42.83947, 3.0849e-003, 2.0329e-005
 211.059, 43.86038, 3.1743e-003, 1.9536e-005
 215.559, 44.89035, 3.2637e-003, 2.0345e-005
 220.059, 45.92378, 3.3531e-003, 2.0018e-005
 224.559, 46.96377, 3.4431e-003, 2.0268e-005
 229.059, 48.00888, 3.5331e-003, 2.0111e-005
 233.559, 49.06143, 3.6225e-003, 1.9670e-005
 238.059, 50.11915, 3.7130e-003, 2.0413e-005
 242.559, 51.18616, 3.8032e-003, 2.0491e-005
 247.059, 52.25431, 3.8928e-003, 2.0399e-005
 251.559, 53.33195, 3.9835e-003, 2.0157e-005
 256.059, 54.41497, 4.0736e-003, 1.9884e-005
 260.559, 55.50532, 4.1639e-003, 2.0406e-005
 265.059, 56.60021, 4.2548e-003, 1.9503e-005
 269.559, 57.70051, 4.3454e-003, 2.0347e-005
 274.059, 58.80965, 4.4363e-003, 2.0591e-005
 278.559, 59.92890, 4.5274e-003, 1.9850e-005
 283.059, 61.05238, 4.6185e-003, 2.0236e-005
 287.559, 62.18262, 4.7091e-003, 2.0624e-005
 292.059, 63.31588, 4.8001e-003, 2.0146e-005
 296.559, 64.46061, 4.8912e-003, 2.0540e-005
 301.059, 65.61397, 4.9826e-003, 1.9872e-005
 305.559, 66.76934, 5.0736e-003, 2.0378e-005
 310.059, 67.93192, 5.1653e-003, 2.0068e-005
 314.559, 69.10350, 5.2564e-003, 2.0569e-005
 319.059, 70.27933, 5.3482e-003, 2.0823e-005
 323.559, 71.46341, 5.4394e-003, 2.0598e-005
 328.059, 72.65446, 5.5314e-003, 2.0643e-005
 332.559, 73.85603, 5.6233e-003, 2.0430e-005
 337.059, 75.06236, 5.7153e-003, 2.0220e-005
 341.559, 76.27356, 5.8073e-003, 2.0461e-005
 346.059, 77.49390, 5.8992e-003, 2.0314e-005
 350.559, 78.71810, 5.9910e-003, 2.1066e-005
 355.059, 79.95352, 6.0865e-003, 2.0737e-005
 359.559, 81.21131, 6.1835e-003, 2.1074e-005
 364.059, 82.47465, 6.2776e-003, 2.0482e-005
 368.559, 83.70533, 6.3664e-003, 1.9509e-005
 373.059, 84.90345, 6.4545e-003, 1.9832e-005
 377.559, 86.09458, 6.5450e-003, 2.0334e-005
 382.059, 87.31369, 6.6373e-003, 2.0663e-005
 386.559, 88.55587, 6.7305e-003, 2.1420e-005
 391.059, 89.81735, 6.8238e-003, 2.0648e-005
 395.559, 91.09238, 6.9168e-003, 2.1463e-005
 400.059, 92.38727, 7.0108e-003, 2.0863e-005
 404.559, 93.69545, 7.1053e-003, 2.1238e-005
 409.059, 95.01375, 7.1995e-003, 2.0738e-005
 413.559, 96.34286, 7.2939e-003, 2.1921e-005
 418.059, 97.67889, 7.3886e-003, 2.1247e-005
 422.559, 99.02485, 7.4827e-003, 2.0689e-005
 427.059,100.374, 7.5769e-003, 2.2116e-005
 431.559,101.733, 7.6722e-003, 2.1089e-005
 436.059,103.1, 7.7666e-003, 2.1249e-005
 440.559,104.467, 7.8615e-003, 2.1157e-005
 445.059,105.839, 7.9566e-003, 2.1511e-005
 449.559,107.225, 8.0521e-003, 2.0204e-005
 454.059,108.614, 8.1470e-003, 2.0938e-005
 458.559,110.004, 8.2426e-003, 2.1503e-005
 463.059,111.405, 8.3386e-003, 2.0987e-005
 467.559,112.812, 8.4347e-003, 2.0842e-005
 472.059,114.221, 8.5305e-003, 2.1425e-005
 476.559,115.636, 8.6275e-003, 2.1359e-005
 481.059,117.064, 8.7241e-003, 2.1045e-005
 485.559,118.496, 8.8215e-003, 2.1481e-005
 490.059,119.934, 8.9179e-003, 2.1358e-005
 494.559,121.383, 9.0153e-003, 2.2028e-005
 499.059,122.838, 9.1127e-003, 2.1872e-005
 503.559,124.292, 9.2101e-003, 2.1795e-005
 508.059,125.758, 9.3081e-003, 2.2275e-005
 512.559,127.236, 9.4079e-003, 2.2236e-005
 517.059,128.736, 9.5105e-003, 2.3044e-005
 521.559,130.231, 9.6094e-003, 2.1637e-005
 526.059,131.666, 9.7042e-003, 2.1067e-005
 530.559,133.094, 9.8016e-003, 2.1845e-005
 535.059,134.554, 9.9014e-003, 2.2131e-005
 539.559,136.032, 1.0001e-002, 2.2163e-005
 544.059,137.529, 1.0102e-002, 2.3172e-005
 548.559,139.046, 1.0203e-002, 2.1992e-005
 553.059,140.575, 1.0305e-002, 2.2064e-005
 557.559,142.108, 1.0406e-002, 2.2171e-005
 562.059,143.647, 1.0508e-002, 2.2987e-005
 566.559,145.194, 1.0609e-002, 2.2975e-005
 571.059,146.748, 1.0711e-002, 2.2497e-005
 575.559,148.301, 1.0812e-002, 2.2507e-005
 580.059,149.86, 1.0915e-002, 2.2534e-005
 584.559,151.425, 1.1016e-002, 2.2829e-005
 589.059,152.989, 1.1118e-002, 2.1742e-005
 593.559,154.559, 1.1220e-002, 2.2502e-005
 598.059,156.134, 1.1322e-002, 2.3054e-005
 602.559,157.719, 1.1424e-002, 2.1437e-005
 607.059,159.301, 1.1527e-002, 2.2986e-005
 611.559,160.892, 1.1629e-002, 2.2097e-005
 616.059,162.482, 1.1731e-002, 2.2922e-005
 620.559,164.093, 1.1836e-002, 2.3868e-005
 625.059,165.739, 1.1942e-002, 2.3498e-005
 629.559,167.343, 1.2041e-002, 2.0092e-005
 634.059,168.901, 1.2140e-002, 2.1406e-005
 638.559,170.474, 1.2241e-002, 2.0243e-005
 643.059,172.064, 1.2343e-002, 2.2361e-005
 647.559,173.674, 1.2445e-002, 2.2452e-005
 652.059,175.301, 1.2546e-002, 2.3511e-005
 656.559,176.937, 1.2648e-002, 2.2884e-005
 661.059,178.581, 1.2750e-002, 2.2968e-005
 665.559,180.235, 1.2851e-002, 2.3870e-005
 670.059,181.904, 1.2954e-002, 2.3526e-005
 674.559,183.61, 1.3060e-002, 2.4033e-005
 679.059,185.3, 1.3162e-002, 2.2394e-005
 683.559,186.937, 1.3262e-002, 2.3282e-005
 688.059,188.588, 1.3364e-002, 2.3359e-005
 692.559,190.266, 1.3467e-002, 2.3595e-005
 697.059,191.964, 1.3569e-002, 2.3260e-005
 701.559,193.669, 1.3672e-002, 2.2988e-005
 706.059,195.379, 1.3773e-002, 2.3659e-005
 710.559,197.087, 1.3876e-002, 2.1100e-005
 715.059,198.809, 1.3979e-002, 2.3176e-005
 719.559,200.525, 1.4081e-002, 2.1233e-005
 724.059,202.251, 1.4182e-002, 2.1485e-005
 728.559,203.979, 1.4285e-002, 2.2546e-005
 733.059,205.709, 1.4389e-002, 2.1155e-005
 737.559,207.441, 1.4492e-002, 2.1789e-005
 742.059,209.176, 1.4596e-002, 2.3226e-005
 746.559,210.942, 1.4702e-002, 2.2340e-005
 751.059,212.724, 1.4806e-002, 2.4974e-005
 755.559,214.424, 1.4908e-002, 2.2850e-005
 760.059,216.121, 1.5011e-002, 2.3811e-005
 764.559,217.836, 1.5114e-002, 2.4172e-005
 769.059,219.564, 1.5216e-002, 2.4078e-005
 773.559,221.315, 1.5320e-002, 2.5352e-005
 778.059,223.101, 1.5427e-002, 2.3627e-005
 782.559,224.996, 1.5532e-002, 2.1347e-005
 787.059,226.891, 1.5638e-002, 2.1688e-005
 791.559,228.832, 1.5743e-002, 2.0776e-005
 796.059,230.802, 1.5849e-002, 2.0869e-005
 800.559,232.702, 1.5953e-002, 2.3688e-005
 805.059,234.618, 1.6057e-002, 2.6067e-005
 809.559,236.478, 1.6162e-002, 2.1134e-005
 814.059,238.355, 1.6269e-002, 2.1130e-005
 818.559,240.101, 1.6370e-002, 2.1256e-005
 823.059,241.831, 1.6474e-002, 2.5536e-005
 827.559,243.567, 1.6576e-002, 2.1288e-005
 832.059,245.306, 1.6681e-002, 2.1351e-005
 836.559,247.043, 1.6785e-002, 2.0782e-005
 841.059,248.742, 1.6886e-002, 2.1004e-005
 845.559,250.501, 1.6993e-002, 2.0738e-005
 850.059,252.25, 1.7097e-002, 2.3207e-005
 854.559,254.019, 1.7204e-002, 2.2935e-005
 859.059,255.857, 1.7311e-002, 3.0863e-005
 863.559,257.955, 1.7423e-002, 2.5055e-005
 868.059,259.707, 1.7526e-002, 2.2856e-005
 872.559,261.492, 1.7633e-002, 2.1905e-005
 877.059,263.244, 1.7740e-002, 2.2873e-005
 881.559,265.025, 1.7846e-002, 2.1403e-005
 886.059,266.87, 1.7951e-002, 2.1767e-005
 890.559,268.659, 1.8056e-002, 2.0618e-005
 895.059,270.339, 1.8163e-002, 3.3341e-005
 899.559,272.061, 1.8268e-002, 2.1837e-005
 904.059,274.004, 1.8380e-002, 2.2594e-005
 908.559,275.999, 1.8495e-002, 3.9269e-005
 913.059,278.334, 1.8598e-002, 2.9504e-005
 917.559,279.99, 1.8709e-002, 2.3242e-005
 922.059,281.702, 1.8819e-002, 2.1592e-005
 926.559,283.466, 1.8931e-002, 2.2516e-005
 931.059,285.241, 1.9046e-002, 2.3647e-005
 935.559,286.991, 1.9145e-002, 2.1031e-005
 940.059,288.705, 1.9251e-002, 2.1706e-005
 944.559,290.39, 1.9354e-002, 2.2677e-005
 949.059,292.07, 1.9461e-002, 2.1008e-005
 953.559,293.723, 1.9568e-002, 2.1787e-005
 958.059,295.437, 1.9677e-002, 2.1058e-005
 962.559,297.121, 1.9785e-002, 2.8518e-005
 967.059,299.08, 1.9900e-002, 1.8784e-005
 971.559,300.776, 2.0008e-002, 2.1689e-005
 976.059,302.281, 2.0112e-002, 2.2362e-005
 980.559,303.994, 2.0227e-002, 1.7758e-005
 985.059,305.628, 2.0335e-002, 2.2396e-005
 989.559,307.296, 2.0441e-002, 2.3436e-005
 994.059,309.045, 2.0550e-002, 2.0631e-005
 998.559,310.701, 2.0658e-002, 2.1618e-005
1003.06,312.365, 2.0766e-002, 2.0711e-005
1007.56,313.984, 2.0877e-002, 3.1551e-005
1009.06,314.525, 2.0916e-002, 2.0426e-005