Folder: thermal-expansion/data_backup/16.6mm-091419

Note: README.md
# thermal-expansion
Calculates linear and volume alphas from dilatometer data (Netzsch DIL-402c) by curve fitting

File: byto000sA1r1-16mm-091519.csv
#EXPORTTYPE:           ,DATA ALL
#FILE:                 ,bytownA1r1.ngb-sle
#FORMAT:               ,NETZSCH5
#FTYPE:                ,ANSI
#IDENTITY:             ,bytownite#3
#DECIMAL:              ,POINT
#SEPARATOR:            ,COMMA
#MTYPE:                ,DIL
#INSTRUMENT:           ,NETZSCH DIL 402C
#PROJECT:              ,feldspar
#DATE/TIME:            ,9/15/2019 9:30:55 AM (UTC-5)
#CORR. FILE:           ,
#TEMPCAL:              ,TCALZERO.TMX
#LABORATORY:           ,Mineral Physics
#OPERATOR:             ,PAG
#REMARK:               ,bare, norm start, for bytown and rocks , long stnd, thin, should be 100* hope tc holds up
#SAMPLE:               ,bytownite-A
#SAMPLE LENGTH /mm:    ,16.048
#MATERIAL:             ,sapphire stnd
#MEASMODE:             ,Standard Expansion
#PURGE GAS 1:          ,ARGON
#FLOW RATE 1 /(ml/min):,75
#M.RANGE /µm:          ,500
#CORR. CODE:           ,010
#RANGE:                ,20.0°C/3.0(K/min)/1200.0°C
#SEGMENT:              ,S1/1
#SEG. 1:               ,20.0°C/3.0(K/min)/1200.0°C

##Temp./°C,Time/min,dL/Lo
 20.09500,  0.00000, 4.9400e-006
 20.12500,  0.84500, 7.4130e-006
 20.11500,  1.69000, 6.6017e-006
 20.13000,  2.53500, 4.8160e-006
 20.46500,  3.38000, 8.0479e-007
 21.77900,  4.22500,-7.6167e-006
 24.35200,  5.07000,-1.4582e-005
 27.88100,  5.91500,-1.1696e-005
 31.92400,  6.76000, 2.7785e-006
 36.09800,  7.60500, 2.7850e-005
 40.24700,  8.45000, 5.8611e-005
 44.47700,  9.29500, 9.3571e-005
 48.81400, 10.14000, 1.3130e-004
 53.27000, 10.98500, 1.7216e-004
 57.80800, 11.83000, 2.1675e-004
 62.36700, 12.67500, 2.6455e-004
 66.92000, 13.52000, 3.1506e-004
 71.43500, 14.36500, 3.6749e-004
 75.93100, 15.21000, 4.2085e-004
 80.38900, 16.05500, 4.7512e-004
 84.83200, 16.90000, 5.2988e-004
 89.20800, 17.74500, 5.8518e-004
 93.55600, 18.59000, 6.4105e-004
 97.85700, 19.43500, 6.9699e-004
102.117, 20.28000, 7.5316e-004
106.345, 21.12500, 8.0943e-004
110.534, 21.97000, 8.6504e-004
114.699, 22.81500, 9.2030e-004
118.851, 23.66000, 9.7611e-004
122.976, 24.50500, 1.0310e-003
127.067, 25.35000, 1.0863e-003
131.135, 26.19500, 1.1408e-003
135.186, 27.04000, 1.1956e-003
139.208, 27.88500, 1.2498e-003
143.209, 28.73000, 1.3040e-003
147.209, 29.57500, 1.3581e-003
151.173, 30.42000, 1.4121e-003
155.101, 31.26500, 1.4656e-003
159.032, 32.11000, 1.5190e-003
162.934, 32.95500, 1.5721e-003
166.81, 33.80000, 1.6249e-003
170.681, 34.64500, 1.6777e-003
174.547, 35.49000, 1.7308e-003
178.37, 36.33500, 1.7833e-003
182.159, 37.18000, 1.8354e-003
185.946, 38.02500, 1.8873e-003
189.73, 38.87000, 1.9395e-003
193.495, 39.71500, 1.9911e-003
197.241, 40.56000, 2.0425e-003
200.96, 41.40500, 2.0937e-003
204.669, 42.25000, 2.1449e-003
208.34, 43.09500, 2.1954e-003
212.014, 43.94000, 2.2456e-003
215.657, 44.78500, 2.2958e-003
219.299, 45.63000, 2.3461e-003
222.93, 46.47500, 2.3961e-003
226.505, 47.32000, 2.4453e-003
230.08, 48.16500, 2.4951e-003
233.65, 49.01000, 2.5442e-003
237.195, 49.85500, 2.5934e-003
240.728, 50.70000, 2.6420e-003
244.235, 51.54500, 2.6909e-003
247.736, 52.39000, 2.7391e-003
251.214, 53.23500, 2.7876e-003
254.662, 54.08000, 2.8351e-003
258.108, 54.92500, 2.8827e-003
261.546, 55.77000, 2.9305e-003
264.973, 56.61500, 2.9778e-003
268.375, 57.46000, 3.0250e-003
271.767, 58.30500, 3.0713e-003
275.137, 59.15000, 3.1178e-003
278.479, 59.99500, 3.1641e-003
281.819, 60.84000, 3.2104e-003
285.16, 61.68500, 3.2566e-003
288.468, 62.53000, 3.3023e-003
291.745, 63.37500, 3.3475e-003
295.022, 64.22000, 3.3930e-003
298.295, 65.06500, 3.4385e-003
301.546, 65.91000, 3.4833e-003
304.777, 66.75500, 3.5278e-003
307.995, 67.60000, 3.5725e-003
311.201, 68.44500, 3.6167e-003
314.398, 69.29000, 3.6613e-003
317.57, 70.13500, 3.7047e-003
320.744, 70.98000, 3.7489e-003
323.876, 71.82500, 3.7921e-003
327.029, 72.67000, 3.8357e-003
330.165, 73.51500, 3.8793e-003
333.27, 74.36000, 3.9220e-003
336.37, 75.20500, 3.9644e-003
339.468, 76.05000, 4.0073e-003
342.553, 76.89500, 4.0501e-003
345.619, 77.74000, 4.0924e-003
348.676, 78.58500, 4.1346e-003
351.714, 79.43000, 4.1763e-003
354.73, 80.27500, 4.2183e-003
357.762, 81.12000, 4.2599e-003
360.751, 81.96500, 4.3014e-003
363.763, 82.81000, 4.3428e-003
366.744, 83.65500, 4.3839e-003
369.717, 84.50000, 4.4251e-003
372.682, 85.34500, 4.4665e-003
375.643, 86.19000, 4.5071e-003
378.598, 87.03500, 4.5482e-003
381.528, 87.88000, 4.5887e-003
384.446, 88.72500, 4.6292e-003
387.343, 89.57000, 4.6693e-003
390.252, 90.41500, 4.7098e-003
393.147, 91.26000, 4.7499e-003
396.031, 92.10500, 4.7898e-003
398.914, 92.95000, 4.8295e-003
401.785, 93.79500, 4.8693e-003
404.641, 94.64000, 4.9088e-003
407.492, 95.48500, 4.9482e-003
410.333, 96.33000, 4.9870e-003
413.164, 97.17500, 5.0263e-003
415.972, 98.02000, 5.0650e-003
418.787, 98.86500, 5.1049e-003
421.589, 99.71000, 5.1440e-003
424.368,100.555, 5.1841e-003
427.111,101.4, 5.2235e-003
429.84,102.245, 5.2623e-003
432.627,103.09, 5.2997e-003
435.48,103.935, 5.3376e-003
438.366,104.78, 5.3751e-003
441.252,105.625, 5.4144e-003
444.111,106.47, 5.4542e-003
446.931,107.315, 5.4928e-003
449.722,108.16, 5.5316e-003
452.51,109.005, 5.5705e-003
455.248,109.85, 5.6085e-003
457.979,110.695, 5.6468e-003
460.683,111.54, 5.6841e-003
463.361,112.385, 5.7221e-003
466.034,113.23, 5.7587e-003
468.701,114.075, 5.7961e-003
471.35,114.92, 5.8325e-003
473.99,115.765, 5.8698e-003
476.637,116.61, 5.9072e-003
479.257,117.455, 5.9449e-003
481.852,118.3, 5.9826e-003
484.41,119.145, 6.0203e-003
486.97,119.99, 6.0566e-003
489.579,120.835, 6.0918e-003
492.244,121.68, 6.1272e-003
494.941,122.525, 6.1637e-003
497.644,123.37, 6.2008e-003
500.301,124.215, 6.2378e-003
502.946,125.06, 6.2743e-003
505.58,125.905, 6.3109e-003
508.192,126.75, 6.3470e-003
510.792,127.595, 6.3840e-003
513.358,128.44, 6.4196e-003
515.913,129.285, 6.4545e-003
518.454,130.13, 6.4906e-003
520.982,130.975, 6.5257e-003
523.497,131.82, 6.5604e-003
526.026,132.665, 6.5964e-003
528.537,133.51, 6.6320e-003
531.042,134.355, 6.6675e-003
533.542,135.2, 6.7029e-003
536.035,136.045, 6.7395e-003
538.532,136.89, 6.7729e-003
541.013,137.735, 6.8085e-003
543.485,138.58, 6.8435e-003
545.954,139.425, 6.8789e-003
548.421,140.27, 6.9137e-003
550.894,141.115, 6.9487e-003
553.374,141.96, 6.9835e-003
555.851,142.805, 7.0185e-003
558.312,143.65, 7.0530e-003
560.762,144.495, 7.0880e-003
563.211,145.34, 7.1220e-003
565.672,146.185, 7.1568e-003
568.121,147.03, 7.1909e-003
570.576,147.875, 7.2265e-003
573.005,148.72, 7.2610e-003
575.435,149.565, 7.2956e-003
577.859,150.41, 7.3302e-003
580.282,151.255, 7.3644e-003
582.708,152.1, 7.3990e-003
585.123,152.945, 7.4338e-003
587.527,153.79, 7.4684e-003
589.939,154.635, 7.5028e-003
592.341,155.48, 7.5374e-003
594.747,156.325, 7.5720e-003
597.141,157.17, 7.6075e-003
599.503,158.015, 7.6428e-003
601.835,158.86, 7.6776e-003
604.173,159.705, 7.7127e-003
606.53,160.55, 7.7463e-003
608.941,161.395, 7.7793e-003
611.406,162.24, 7.8138e-003
613.879,163.085, 7.8488e-003
616.333,163.93, 7.8844e-003
618.764,164.775, 7.9192e-003
621.184,165.62, 7.9534e-003
623.585,166.465, 7.9889e-003
625.961,167.31, 8.0234e-003
628.326,168.155, 8.0578e-003
630.685,169, 8.0921e-003
633.023,169.845, 8.1256e-003
635.373,170.69, 8.1598e-003
637.709,171.535, 8.1938e-003
640.046,172.38, 8.2280e-003
642.375,173.225, 8.2619e-003
644.7,174.07, 8.2961e-003
647.034,174.915, 8.3298e-003
649.35,175.76, 8.3635e-003
651.655,176.605, 8.3975e-003
653.97,177.45, 8.4315e-003
656.273,178.295, 8.4651e-003
658.567,179.14, 8.4986e-003
660.863,179.985, 8.5322e-003
663.166,180.83, 8.5649e-003
665.457,181.675, 8.5986e-003
667.728,182.52, 8.6314e-003
670.03,183.365, 8.6642e-003
672.306,184.21, 8.6971e-003
674.588,185.055, 8.7306e-003
676.863,185.9, 8.7632e-003
679.119,186.745, 8.7978e-003
681.322,187.59, 8.8313e-003
683.508,188.435, 8.8635e-003
685.728,189.28, 8.8954e-003
687.972,190.125, 8.9271e-003
690.273,190.97, 8.9595e-003
692.548,191.815, 8.9923e-003
694.841,192.66, 9.0253e-003
697.12,193.505, 9.0575e-003
699.373,194.35, 9.0905e-003
701.621,195.195, 9.1226e-003
703.871,196.04, 9.1550e-003
706.106,196.885, 9.1878e-003
708.345,197.73, 9.2192e-003
710.569,198.575, 9.2516e-003
712.817,199.42, 9.2840e-003
715.039,200.265, 9.3163e-003
717.254,201.11, 9.3482e-003
719.469,201.955, 9.3805e-003
721.695,202.8, 9.4117e-003
723.917,203.645, 9.4440e-003
726.127,204.49, 9.4765e-003
728.328,205.335, 9.5088e-003
730.533,206.18, 9.5403e-003
732.728,207.025, 9.5725e-003
734.924,207.87, 9.6039e-003
737.122,208.715, 9.6366e-003
738.251,209.56, 9.6591e-003
740.867,210.405, 9.6942e-003
743.237,211.25, 9.7278e-003
745.513,212.095, 9.7611e-003
747.872,212.94, 9.7951e-003
750.048,213.785, 9.8280e-003
752.227,214.63, 9.8606e-003
754.167,215.475, 9.8899e-003
756.301,216.32, 9.9211e-003
758.17,217.165, 9.9491e-003
760.281,218.01, 9.9804e-003
762.904,218.855, 1.0016e-002
765.655,219.7, 1.0052e-002
767.177,220.545, 1.0079e-002
768.359,221.39, 1.0102e-002
769.866,222.235, 1.0127e-002
772.163,223.08, 1.0160e-002
774.345,223.925, 1.0192e-002
777.152,224.77, 1.0229e-002
778.344,225.615, 1.0252e-002
780.55,226.46, 1.0284e-002
782.052,227.305, 1.0311e-002
785.655,228.15, 1.0355e-002
787.029,228.995, 1.0378e-002
786.412,229.84, 1.0386e-002
792.218,230.685, 1.0449e-002
794.239,231.53, 1.0480e-002
796.078,232.375, 1.0509e-002
799.013,233.22, 1.0548e-002
801.085,234.065, 1.0579e-002
802.974,234.91, 1.0608e-002
805.176,235.755, 1.0638e-002
807.181,236.6, 1.0669e-002
809.274,237.445, 1.0699e-002
811.075,238.29, 1.0727e-002
813.183,239.135, 1.0757e-002
814.522,239.98, 1.0781e-002
817.173,240.825, 1.0816e-002
819.373,241.67, 1.0846e-002
821.55,242.515, 1.0878e-002
823.666,243.36, 1.0910e-002
825.851,244.205, 1.0941e-002
828.151,245.05, 1.0973e-002
830.212,245.895, 1.1005e-002
832.326,246.74, 1.1036e-002
834.46,247.585, 1.1067e-002
836.165,248.43, 1.1095e-002
837.696,249.275, 1.1121e-002
838.412,250.12, 1.1139e-002
842.221,250.965, 1.1184e-002
842.639,251.81, 1.1201e-002
812.369,251.983, 1.0943e-002

File: sanMtT0p2s1r16mm-111418.csv
#EXPORTTYPE:           ,DATA ALL
#FILE:                 ,sanidMt2P1run1.ngb-sle
#FORMAT:               ,NETZSCH5
#FTYPE:                ,ANSI
#IDENTITY:             ,mt t perp
#DECIMAL:              ,POINT
#SEPARATOR:            ,COMMA
#MTYPE:                ,DIL
#INSTRUMENT:           ,NETZSCH DIL 402C
#PROJECT:              ,morb
#DATE/TIME:            ,11/14/2018 10:12:25 AM (UTC-6)
#CORR. FILE:           ,
#TEMPCAL:              ,TCALZERO.TMX
#LABORATORY:           ,min phys
#OPERATOR:             ,amh
#REMARK:               ,bare, norm start, calib run
#SAMPLE:               ,mt t ortho010
#SAMPLE LENGTH /mm:    ,6.063
#MATERIAL:             ,sapphire stnd
#MEASMODE:             ,Standard Expansion
#PURGE GAS 1:          ,ARGON
#FLOW RATE 1 /(ml/min):,75
#M.RANGE /µm:          ,500
#CORR. CODE:           ,010
#RANGE:                ,20.0°C/3.0(K/min)/950.0°C
#SEGMENT:              ,S1/1
#SEG. 1:               ,20.0°C/3.0(K/min)/950.0°C

##Temp./°C,Time/min,dL/Lo
 21.91400, 0.00000, 1.7930e-005
 21.92500, 0.08667, 1.8215e-005
 21.93300, 0.17333, 1.9138e-005
 21.93700, 0.26000, 1.9888e-005
 21.94300, 0.34667, 2.0694e-005
 21.94300, 0.43333, 2.0818e-005
 21.95000, 0.52000, 2.1651e-005
 21.95200, 0.60667, 2.1995e-005
 21.94900, 0.69333, 2.2592e-005
 21.95400, 0.78000, 2.2628e-005
 21.93800, 0.86667, 2.1978e-005
 21.93400, 0.95333, 2.2341e-005
 21.93300, 1.04000, 2.1344e-005
 21.93900, 1.12667, 2.1861e-005
 21.93500, 1.21333, 2.1255e-005
 21.93500, 1.30000, 2.0699e-005
 21.93600, 1.38667, 2.0541e-005
 21.93400, 1.47333, 2.0485e-005
 21.93100, 1.56000, 1.9784e-005
 21.93600, 1.64667, 1.9283e-005
 21.93300, 1.73333, 1.9221e-005
 21.93000, 1.82000, 1.8498e-005
 21.92900, 1.90667, 1.7687e-005
 21.92200, 1.99333, 1.6647e-005
 21.91400, 2.08000, 1.6570e-005
 21.91200, 2.16667, 1.6349e-005
 21.91400, 2.25333, 1.5642e-005
 21.91000, 2.34000, 1.4995e-005
 21.91400, 2.42667, 1.4405e-005
 21.91600, 2.51333, 1.3821e-005
 21.92000, 2.60000, 1.3520e-005
 21.91600, 2.68667, 1.2461e-005
 21.91900, 2.77333, 1.2338e-005
 21.92200, 2.86000, 1.2400e-005
 21.92000, 2.94667, 1.1170e-005
 21.92100, 3.03333, 1.0764e-005
 21.91900, 3.12000, 1.0358e-005
 21.92900, 3.20667, 9.6258e-006
 21.93200, 3.29333, 7.9567e-006
 21.94300, 3.38000, 7.0457e-006
 21.96500, 3.46667, 6.2339e-006
 21.98500, 3.55333, 5.0367e-006
 22.02500, 3.64000, 3.0134e-006
 22.06700, 3.72667, 1.1487e-006
 22.11800, 3.81333,-1.4556e-006
 22.17900, 3.90000,-3.2670e-006
 22.24300, 3.98667,-6.5207e-006
 22.32100, 4.07333,-9.4475e-006
 22.42000, 4.16000,-1.2657e-005
 22.52900, 4.24667,-1.6476e-005
 22.64300, 4.33333,-2.0258e-005
 22.77800, 4.42000,-2.4901e-005
 22.92000, 4.50667,-2.9576e-005
 23.07100, 4.59333,-3.5341e-005
 23.24500, 4.68000,-4.0406e-005
 23.43400, 4.76667,-4.6703e-005
 23.63000, 4.85333,-5.2435e-005
 23.84400, 4.94000,-5.9027e-005
 24.07000, 5.02667,-6.5183e-005
 24.30900, 5.11333,-7.1225e-005
 24.57800, 5.20000,-7.7795e-005
 24.83500, 5.28667,-8.4037e-005
 25.11400, 5.37333,-9.1359e-005
 25.40000, 5.46000,-9.8486e-005
 25.71300, 5.54667,-1.0455e-004
 26.02600, 5.63333,-1.1138e-004
 26.34600, 5.72000,-1.1843e-004
 26.68700, 5.80667,-1.2456e-004
 27.02800, 5.89333,-1.3175e-004
 27.39100, 5.98000,-1.3811e-004
 27.74700, 6.06667,-1.4494e-004
 28.11000, 6.15333,-1.5114e-004
 28.48000, 6.24000,-1.5643e-004
 28.87500, 6.32667,-1.6254e-004
 29.24600, 6.41333,-1.6817e-004
 29.65100, 6.50000,-1.7425e-004
 30.04000, 6.58667,-1.7937e-004
 30.44800, 6.67333,-1.8461e-004
 30.86600, 6.76000,-1.8843e-004
 31.27400, 6.84667,-1.9257e-004
 31.68200, 6.93333,-1.9758e-004
 32.10400, 7.02000,-2.0083e-004
 32.51800, 7.10667,-2.0416e-004
 32.94300, 7.19333,-2.0746e-004
 33.36400, 7.28000,-2.1119e-004
 33.77900, 7.36667,-2.1454e-004
 34.19000, 7.45333,-2.1694e-004
 34.61300, 7.54000,-2.1969e-004
 35.03200, 7.62667,-2.2197e-004
 35.46200, 7.71333,-2.2286e-004
 35.87900, 7.80000,-2.2505e-004
 36.30600, 7.88667,-2.2684e-004
 36.73300, 7.97333,-2.2779e-004
 37.15300, 8.06000,-2.2916e-004
 37.57300, 8.14667,-2.3009e-004
 37.99600, 8.23333,-2.3114e-004
 38.40100, 8.32000,-2.3183e-004
 38.82500, 8.40667,-2.3311e-004
 39.24200, 8.49333,-2.3317e-004
 39.66400, 8.58000,-2.3265e-004
 40.08600, 8.66667,-2.3276e-004
 40.51000, 8.75333,-2.3329e-004
 40.92300, 8.84000,-2.3241e-004
 41.34300, 8.92667,-2.3210e-004
 41.77200, 9.01333,-2.3272e-004
 42.19500, 9.10000,-2.3216e-004
 42.61700, 9.18667,-2.3231e-004
 43.03800, 9.27333,-2.3082e-004
 43.47500, 9.36000,-2.2973e-004
 43.90300, 9.44667,-2.2883e-004
 44.33800, 9.53333,-2.2884e-004
 44.75900, 9.62000,-2.2768e-004
 45.19900, 9.70667,-2.2599e-004
 45.63100, 9.79333,-2.2565e-004
 46.05900, 9.88000,-2.2470e-004
 46.50400, 9.96667,-2.2293e-004
 46.93500,10.05333,-2.2174e-004
 47.36600,10.14000,-2.2118e-004
 47.80600,10.22667,-2.1978e-004
 48.23600,10.31333,-2.1861e-004
 48.69600,10.40000,-2.1743e-004
 49.13900,10.48667,-2.1602e-004
 49.58200,10.57333,-2.1406e-004
 50.02300,10.66000,-2.1359e-004
 50.47000,10.74667,-2.1201e-004
 50.91100,10.83333,-2.1054e-004
 51.35500,10.92000,-2.0875e-004
 51.81100,11.00667,-2.0714e-004
 52.25900,11.09333,-2.0617e-004
 52.70200,11.18000,-2.0497e-004
 53.15900,11.26667,-2.0214e-004
 53.60600,11.35333,-2.0099e-004
 54.07200,11.44000,-1.9804e-004
 54.52000,11.52667,-1.9686e-004
 54.98500,11.61333,-1.9447e-004
 55.44300,11.70000,-1.9165e-004
 55.89800,11.78667,-1.8929e-004
 56.36300,11.87333,-1.8712e-004
 56.82500,11.96000,-1.8541e-004
 57.28400,12.04667,-1.8277e-004
 57.74800,12.13333,-1.8014e-004
 58.21100,12.22000,-1.7817e-004
 58.67000,12.30667,-1.7530e-004
 59.13000,12.39333,-1.7323e-004
 59.60100,12.48000,-1.6962e-004
 60.06200,12.56667,-1.6655e-004
 60.52800,12.65333,-1.6454e-004
 60.98300,12.74000,-1.6170e-004
 61.44200,12.82667,-1.5850e-004
 61.89300,12.91333,-1.5487e-004
 62.35800,13.00000,-1.5222e-004
 62.83400,13.08667,-1.4882e-004
 63.28600,13.17333,-1.4476e-004
 63.75400,13.26000,-1.4183e-004
 64.21600,13.34667,-1.3801e-004
 64.69000,13.43333,-1.3449e-004
 65.14800,13.52000,-1.3177e-004
 65.61200,13.60667,-1.2763e-004
 66.07300,13.69333,-1.2419e-004
 66.53600,13.78000,-1.1947e-004
 66.99900,13.86667,-1.1552e-004
 67.46300,13.95333,-1.1177e-004
 67.92300,14.04000,-1.0792e-004
 68.38000,14.12667,-1.0399e-004
 68.84400,14.21333,-9.9984e-005
 69.30900,14.30000,-9.5253e-005
 69.76200,14.38667,-9.2114e-005
 70.22900,14.47333,-8.8068e-005
 70.68700,14.56000,-8.3655e-005
 71.13900,14.64667,-7.9614e-005
 71.60000,14.73333,-7.5323e-005
 72.05400,14.82000,-7.1514e-005
 72.51500,14.90667,-6.6789e-005
 72.97800,14.99333,-6.2358e-005
 73.43600,15.08000,-5.8272e-005
 73.90100,15.16667,-5.3146e-005
 74.35400,15.25333,-4.9652e-005
 74.81400,15.34000,-4.4953e-005
 75.26600,15.42667,-4.0208e-005
 75.72600,15.51333,-3.6106e-005
 76.17800,15.60000,-3.1628e-005
 76.64100,15.68667,-2.7030e-005
 77.09200,15.77333,-2.1590e-005
 77.55000,15.86000,-1.7480e-005
 77.99800,15.94667,-1.1978e-005
 78.45700,16.03333,-7.8194e-006
 78.90300,16.12000,-3.3421e-006
 79.36200,16.20667, 2.1372e-006
 79.82700,16.29333, 5.8461e-006
 80.27600,16.38000, 1.1171e-005
 80.72700,16.46667, 1.5975e-005
 81.17500,16.55333, 2.0303e-005
 81.62500,16.64000, 2.5183e-005
 82.07400,16.72667, 2.9932e-005
 82.52200,16.81333, 3.4839e-005
 82.96900,16.90000, 3.9162e-005
 83.42400,16.98667, 4.4966e-005
 83.87500,17.07333, 4.9978e-005
 84.32500,17.16000, 5.4551e-005
 84.77600,17.24667, 5.9997e-005
 85.22300,17.33333, 6.4012e-005
 85.66600,17.42000, 6.9339e-005
 86.11600,17.50667, 7.4139e-005
 86.56600,17.59333, 7.9456e-005
 87.00800,17.68000, 8.5023e-005
 87.44300,17.76667, 8.9427e-005
 87.89300,17.85333, 9.4600e-005
 88.34600,17.94000, 9.9465e-005
 88.79400,18.02667, 1.0498e-004
 89.22800,18.11333, 1.1030e-004
 89.68200,18.20000, 1.1623e-004
 90.12000,18.28667, 1.2047e-004
 90.56000,18.37333, 1.2489e-004
 91.00100,18.46000, 1.2967e-004
 91.44500,18.54667, 1.3565e-004
 91.88300,18.63333, 1.4121e-004
 92.32700,18.72000, 1.4609e-004
 92.77200,18.80667, 1.5210e-004
 93.20800,18.89333, 1.5751e-004
 93.65900,18.98000, 1.6244e-004
 94.09500,19.06667, 1.6737e-004
 94.53200,19.15333, 1.7219e-004
 94.97700,19.24000, 1.7818e-004
 95.41100,19.32667, 1.8338e-004
 95.86300,19.41333, 1.8897e-004
 96.29700,19.50000, 1.9384e-004
 96.73400,19.58667, 1.9955e-004
 97.17400,19.67333, 2.0560e-004
 97.60700,19.76000, 2.1082e-004
 98.04200,19.84667, 2.1567e-004
 98.48400,19.93333, 2.2099e-004
 98.91200,20.02000, 2.2643e-004
 99.34900,20.10667, 2.3166e-004
 99.78600,20.19333, 2.3734e-004
100.214,20.28000, 2.4210e-004
100.645,20.36667, 2.4774e-004
101.077,20.45333, 2.5273e-004
101.501,20.54000, 2.5844e-004
101.936,20.62667, 2.6401e-004
102.375,20.71333, 2.6973e-004
102.807,20.80000, 2.7478e-004
103.245,20.88667, 2.7994e-004
103.67,20.97333, 2.8537e-004
104.1,21.06000, 2.9103e-004
104.545,21.14667, 2.9581e-004
104.973,21.23333, 3.0174e-004
105.398,21.32000, 3.0695e-004
105.826,21.40667, 3.1210e-004
106.244,21.49333, 3.1816e-004
106.667,21.58000, 3.2270e-004
107.101,21.66667, 3.2787e-004
107.531,21.75333, 3.3332e-004
107.958,21.84000, 3.3894e-004
108.385,21.92667, 3.4447e-004
108.812,22.01333, 3.4960e-004
109.247,22.10000, 3.5597e-004
109.676,22.18667, 3.6183e-004
110.105,22.27333, 3.6714e-004
110.529,22.36000, 3.7224e-004
110.948,22.44667, 3.7741e-004
111.375,22.53333, 3.8288e-004
111.816,22.62000, 3.8844e-004
112.236,22.70667, 3.9467e-004
112.662,22.79333, 3.9956e-004
113.085,22.88000, 4.0482e-004
113.514,22.96667, 4.1103e-004
113.942,23.05333, 4.1594e-004
114.367,23.14000, 4.2169e-004
114.791,23.22667, 4.2725e-004
115.21,23.31333, 4.3295e-004
115.641,23.40000, 4.3832e-004
116.065,23.48667, 4.4353e-004
116.486,23.57333, 4.4863e-004
116.9,23.66000, 4.5391e-004
117.333,23.74667, 4.5910e-004
117.748,23.83333, 4.6460e-004
118.178,23.92000, 4.7047e-004
118.601,24.00667, 4.7547e-004
119.025,24.09333, 4.8025e-004
119.447,24.18000, 4.8598e-004
119.866,24.26667, 4.9155e-004
120.282,24.35333, 4.9746e-004
120.706,24.44000, 5.0202e-004
121.129,24.52667, 5.0846e-004
121.542,24.61333, 5.1330e-004
121.967,24.70000, 5.1918e-004
122.394,24.78667, 5.2481e-004
122.812,24.87333, 5.3021e-004
123.231,24.96000, 5.3561e-004
123.655,25.04667, 5.4097e-004
124.063,25.13333, 5.4553e-004
124.481,25.22000, 5.5167e-004
124.792,25.28500, 5.5480e-004