Folder: thermal-expansion/data_backup/8.1mm (part 3)

File: oligHawk001s1r5-7.0mm.csv
#EXPORTTYPE:           ,DATA ALL
#FILE:                 ,oligHawk001s1run5.ngb-sle
#FORMAT:               ,NETZSCH5
#FTYPE:                ,ANSI
#IDENTITY:             ,oligoclase hawk mine
#DECIMAL:              ,POINT
#SEPARATOR:            ,COMMA
#MTYPE:                ,DIL
#INSTRUMENT:           ,NETZSCH DIL 402C
#PROJECT:              ,feldspar
#DATE/TIME:            ,8/27/2019 9:40:21 AM (UTC-5)
#CORR. FILE:           ,
#TEMPCAL:              ,TCALZERO.TMX
#LABORATORY:           ,Mineral Physics
#OPERATOR:             ,PAG
#REMARK:               ,bare, norm start, for short plageioclase, sapphire, run 5 of hawk mine001 shortie
#SAMPLE:               ,hawk 001 run5
#SAMPLE LENGTH /mm:    ,6.991
#MATERIAL:             ,sapphire stnd
#MEASMODE:             ,Standard Expansion
#PURGE GAS 1:          ,ARGON
#FLOW RATE 1 /(ml/min):,75
#M.RANGE /µm:          ,500
#CORR. CODE:           ,010
#RANGE:                ,20.0°C/3.0(K/min)/1010.0°C
#SEGMENT:              ,S1/1
#SEG. 1:               ,20.0°C/3.0(K/min)/1010.0°C

##Temp./°C,Time/min,dL/Lo,Alpha/(1/K)
  22.64300,  0.00000, 2.4370e-005, 1.5240e-005
  27.64300,  6.24564,-7.2726e-005,-1.2803e-005
  32.64300,  7.34400,-1.1733e-004,-4.1331e-006
  37.64300,  8.34940,-1.2446e-004, 8.2427e-007
  42.64300,  9.35684,-1.0803e-004, 4.2183e-006
  47.64300, 10.35563,-7.8801e-005, 6.9699e-006
  52.64300, 11.32416,-4.5238e-005, 7.1557e-006
  57.64300, 12.26838,-6.1439e-006, 7.8027e-006
  62.64300, 13.19857, 3.9981e-005, 1.0112e-005
  67.64300, 14.13050, 9.3412e-005, 1.1476e-005
  72.64300, 15.06870, 1.5219e-004, 1.2857e-005
  77.64300, 16.01831, 2.1694e-004, 1.2926e-005
  82.64300, 16.97613, 2.8244e-004, 1.3926e-005
  87.64300, 17.94638, 3.5103e-004, 1.3405e-005
  92.64300, 18.92495, 4.2116e-004, 1.4393e-005
  97.64300, 19.91233, 4.9310e-004, 1.4214e-005
 102.643, 20.91410, 5.6542e-004, 1.3766e-005
 107.643, 21.92121, 6.3759e-004, 1.4743e-005
 112.643, 22.93816, 7.1219e-004, 1.4550e-005
 117.643, 23.96479, 7.8721e-004, 1.4657e-005
 122.643, 24.99833, 8.6104e-004, 1.5389e-005
 127.643, 26.03760, 9.3617e-004, 1.5069e-005
 132.643, 27.08331, 1.0105e-003, 1.3686e-005
 137.643, 28.13552, 1.0872e-003, 1.5079e-005
 142.643, 29.19273, 1.1635e-003, 1.5219e-005
 147.643, 30.25750, 1.2401e-003, 1.5225e-005
 152.643, 31.33367, 1.3167e-003, 1.5539e-005
 157.643, 32.41081, 1.3937e-003, 1.4950e-005
 162.643, 33.49156, 1.4705e-003, 1.5011e-005
 167.643, 34.57948, 1.5479e-003, 1.5427e-005
 172.643, 35.67024, 1.6248e-003, 1.5796e-005
 177.643, 36.77019, 1.7032e-003, 1.5809e-005
 182.643, 37.88061, 1.7807e-003, 1.5159e-005
 187.643, 38.99382, 1.8593e-003, 1.5509e-005
 192.643, 40.11279, 1.9366e-003, 1.5971e-005
 197.643, 41.23624, 2.0128e-003, 1.5906e-005
 202.643, 42.36963, 2.0912e-003, 1.5953e-005
 207.643, 43.50959, 2.1695e-003, 1.4757e-005
 212.643, 44.65408, 2.2468e-003, 1.5887e-005
 217.643, 45.80764, 2.3252e-003, 1.5249e-005
 222.643, 46.96868, 2.4011e-003, 1.5331e-005
 227.643, 48.13597, 2.4792e-003, 1.6173e-005
 232.643, 49.31330, 2.5567e-003, 1.5762e-005
 237.643, 50.49743, 2.6347e-003, 1.5293e-005
 242.643, 51.68834, 2.7121e-003, 1.5215e-005
 247.643, 52.88542, 2.7905e-003, 1.5291e-005
 252.643, 54.08966, 2.8676e-003, 1.5076e-005
 257.643, 55.30261, 2.9455e-003, 1.5138e-005
 262.643, 56.52694, 3.0225e-003, 1.6111e-005
 267.643, 57.75486, 3.1003e-003, 1.5711e-005
 272.643, 58.98999, 3.1779e-003, 1.6111e-005
 277.643, 60.23325, 3.2547e-003, 1.5733e-005
 282.643, 61.48666, 3.3315e-003, 1.5102e-005
 287.643, 62.74855, 3.4089e-003, 1.6222e-005
 292.643, 64.01791, 3.4857e-003, 1.5525e-005
 297.643, 65.29691, 3.5636e-003, 1.6086e-005
 302.643, 66.58092, 3.6397e-003, 1.4833e-005
 307.643, 67.87566, 3.7165e-003, 1.4346e-005
 312.643, 69.17872, 3.7931e-003, 1.5515e-005
 317.643, 70.49079, 3.8703e-003, 1.4620e-005
 322.643, 71.81107, 3.9471e-003, 1.5664e-005
 327.643, 73.14103, 4.0232e-003, 1.4718e-005
 332.643, 74.48066, 4.0990e-003, 1.5983e-005
 337.643, 75.82156, 4.1757e-003, 1.5224e-005
 342.643, 77.17339, 4.2511e-003, 1.5995e-005
 347.643, 78.53383, 4.3280e-003, 1.5748e-005
 352.643, 79.90522, 4.4055e-003, 1.6541e-005
 357.643, 81.29381, 4.4874e-003, 1.6752e-005
 362.643, 82.69950, 4.5676e-003, 1.4953e-005
 367.643, 84.07851, 4.6387e-003, 1.3168e-005
 372.643, 85.41647, 4.7061e-003, 1.3778e-005
 377.643, 86.75516, 4.7776e-003, 1.4886e-005
 382.643, 88.12083, 4.8523e-003, 1.4677e-005
 387.643, 89.51171, 4.9274e-003, 1.4773e-005
 392.643, 90.92294, 5.0026e-003, 1.4622e-005
 397.643, 92.35220, 5.0777e-003, 1.4648e-005
 402.643, 93.80028, 5.1537e-003, 1.4645e-005
 407.643, 95.26274, 5.2282e-003, 1.5066e-005
 412.643, 96.73372, 5.3033e-003, 1.4522e-005
 417.643, 98.21229, 5.3778e-003, 1.5565e-005
 422.643, 99.69825, 5.4517e-003, 1.5415e-005
 427.643,101.194, 5.5267e-003, 1.5228e-005
 432.643,102.701, 5.6013e-003, 1.5308e-005
 437.643,104.208, 5.6748e-003, 1.4999e-005
 442.643,105.724, 5.7486e-003, 1.5759e-005
 447.643,107.249, 5.8232e-003, 1.5788e-005
 452.643,108.782, 5.8973e-003, 1.4257e-005
 457.643,110.321, 5.9711e-003, 1.6114e-005
 462.643,111.876, 6.0507e-003, 1.6254e-005
 467.643,113.462, 6.1290e-003, 1.4868e-005
 472.643,115.002, 6.1975e-003, 1.2585e-005
 477.643,116.505, 6.2649e-003, 1.4085e-005
 482.643,118.021, 6.3360e-003, 1.3912e-005
 487.643,119.562, 6.4072e-003, 1.3487e-005
 492.643,121.129, 6.4804e-003, 1.4402e-005
 497.643,122.717, 6.5531e-003, 1.5440e-005
 502.643,124.319, 6.6251e-003, 1.4019e-005
 507.643,125.937, 6.6984e-003, 1.4302e-005
 512.643,127.564, 6.7703e-003, 1.5016e-005
 517.643,129.196, 6.8435e-003, 1.4025e-005
 522.643,130.84, 6.9164e-003, 1.5068e-005
 527.643,132.482, 6.9885e-003, 1.3743e-005
 532.643,134.128, 7.0614e-003, 1.3851e-005
 537.643,135.784, 7.1354e-003, 1.4731e-005
 542.643,137.444, 7.2075e-003, 1.5045e-005
 547.643,139.111, 7.2813e-003, 1.4386e-005
 552.643,140.791, 7.3535e-003, 1.4739e-005
 557.643,142.467, 7.4259e-003, 1.5847e-005
 562.643,144.151, 7.4990e-003, 1.3990e-005
 567.643,145.847, 7.5719e-003, 1.5310e-005
 572.643,147.551, 7.6455e-003, 1.4887e-005
 577.643,149.263, 7.7194e-003, 1.5323e-005
 582.643,151.011, 7.8001e-003, 1.5945e-005
 587.643,152.75, 7.8723e-003, 1.3465e-005
 592.643,154.419, 7.9401e-003, 1.3782e-005
 597.643,156.097, 8.0126e-003, 1.5088e-005
 602.643,157.804, 8.0849e-003, 1.4578e-005
 607.643,159.53, 8.1577e-003, 1.4414e-005
 612.643,161.275, 8.2313e-003, 1.4003e-005
 617.643,163.031, 8.3037e-003, 1.5760e-005
 622.643,164.796, 8.3764e-003, 1.3869e-005
 627.643,166.574, 8.4497e-003, 1.5838e-005
 632.643,168.353, 8.5221e-003, 1.6281e-005
 637.643,170.143, 8.5947e-003, 1.4347e-005
 642.643,171.93, 8.6670e-003, 1.4271e-005
 647.643,173.731, 8.7394e-003, 1.3842e-005
 652.643,175.532, 8.8115e-003, 1.4938e-005
 657.643,177.341, 8.8838e-003, 1.4610e-005
 662.643,179.151, 8.9553e-003, 1.5173e-005
 667.643,180.972, 9.0280e-003, 1.4527e-005
 672.643,182.833, 9.1067e-003, 1.5903e-005
 677.643,184.7, 9.1800e-003, 1.3189e-005
 682.643,186.495, 9.2479e-003, 1.4187e-005
 687.643,188.301, 9.3187e-003, 1.2511e-005
 692.643,190.136, 9.3909e-003, 1.4935e-005
 697.643,191.99, 9.4631e-003, 1.4272e-005
 702.643,193.884, 9.5364e-003, 1.4201e-005
 707.643,195.782, 9.6084e-003, 1.3125e-005
 712.643,197.691, 9.6799e-003, 1.3787e-005
 717.643,199.607, 9.7522e-003, 1.3672e-005
 722.643,201.514, 9.8244e-003, 1.4383e-005
 727.643,203.423, 9.8970e-003, 1.4570e-005
 732.643,205.343, 9.9701e-003, 1.6123e-005
 737.643,207.304, 1.0048e-002, 1.5047e-005
 742.643,209.243, 1.0119e-002, 1.3819e-005
 747.643,211.104, 1.0187e-002, 1.2864e-005
 752.643,212.967, 1.0258e-002, 1.4991e-005
 757.643,214.863, 1.0329e-002, 1.4738e-005
 762.643,216.768, 1.0399e-002, 1.3598e-005
 767.643,218.685, 1.0470e-002, 1.3574e-005
 772.643,220.612, 1.0541e-002, 1.3315e-005
 777.643,222.548, 1.0613e-002, 1.5477e-005
 782.643,224.489, 1.0684e-002, 1.3375e-005
 787.643,226.441, 1.0757e-002, 1.4720e-005
 792.643,228.448, 1.0832e-002, 1.4332e-005
 797.643,230.568, 1.0907e-002, 1.7644e-005
 802.643,232.742, 1.0984e-002, 1.7216e-005
 807.643,234.985, 1.1061e-002, 1.3877e-005
 812.643,237.079, 1.1128e-002, 1.2287e-005
 817.643,239.084, 1.1194e-002, 1.3376e-005
 822.643,241.069, 1.1261e-002, 1.4886e-005
 827.643,243.065, 1.1329e-002, 1.3834e-005
 832.643,245.035, 1.1395e-002, 1.4047e-005
 837.643,246.986, 1.1462e-002, 1.3008e-005
 842.643,248.919, 1.1530e-002, 1.4889e-005
 847.643,250.844, 1.1598e-002, 1.3868e-005
 852.643,252.759, 1.1665e-002, 1.4367e-005
 857.643,254.679, 1.1737e-002, 1.4477e-005
 862.643,256.672, 1.1812e-002, 1.3947e-005
 867.643,258.6, 1.1880e-002, 1.3358e-005
 872.643,260.488, 1.1948e-002, 1.4332e-005
 877.643,262.413, 1.2016e-002, 1.3971e-005
 882.643,264.218, 1.2081e-002, 1.6510e-005
 887.643,266.211, 1.2152e-002, 1.4019e-005
 892.643,268.194, 1.2222e-002, 1.4828e-005
 897.643,270.216, 1.2291e-002, 1.4435e-005
 902.643,272.276, 1.2363e-002, 1.3492e-005
 907.643,274.494, 1.2439e-002, 1.7235e-005
 912.643,276.804, 1.2513e-002, 1.7149e-005
 917.643,279.653, 1.2591e-002, 7.6248e-006
 922.643,281.607, 1.2647e-002, 1.2252e-005
 927.643,283.471, 1.2708e-002, 1.3094e-005
 932.643,285.444, 1.2775e-002, 1.2176e-005
 937.643,287.34, 1.2838e-002, 1.6016e-005
 942.643,289.318, 1.2902e-002, 1.0881e-005
 947.643,291.174, 1.2967e-002, 1.3990e-005
 952.643,293.073, 1.3038e-002, 1.5408e-005
 957.643,295.004, 1.3106e-002, 1.3794e-005
 962.643,296.87, 1.3171e-002, 1.2047e-005
 967.643,298.686, 1.3234e-002, 1.1706e-005
 972.643,300.503, 1.3303e-002, 1.3352e-005
 977.643,302.345, 1.3369e-002, 1.2866e-005
 982.643,304.184, 1.3437e-002, 1.5214e-005
 987.643,306.037, 1.3503e-002, 1.2497e-005
 992.643,307.882, 1.3574e-002, 1.3603e-005
 997.643,309.69, 1.3640e-002, 1.4209e-005
1002.64,311.614, 1.3716e-002, 1.4514e-005
1007.64,313.495, 1.3785e-002, 1.2778e-005
1012.64,315.306, 1.3851e-002, 1.3026e-005
1017.64,317.115, 1.3919e-002, 1.2498e-005
1022.64,318.981, 1.3988e-002, 1.3928e-005
1027.64,320.84, 1.4056e-002, 1.2159e-005
1032.64,322.741, 1.4124e-002, 1.2665e-005
1037.64,324.583, 1.4191e-002, 1.2055e-005
1042.64,326.503, 1.4258e-002, 1.2129e-005
1047.64,328.323, 1.4327e-002, 1.4973e-005
1049.64,329.062, 1.4358e-002, 1.5721e-005

File: oligHawk010s1r4-8.25mm.csv
#EXPORTTYPE:           ,DATA ALL
#FILE:                 ,oligHawk010s1ru4.ngb-sle
#FORMAT:               ,NETZSCH5
#FTYPE:                ,ANSI
#IDENTITY:             ,oligoclase
#DECIMAL:              ,POINT
#SEPARATOR:            ,COMMA
#MTYPE:                ,DIL
#INSTRUMENT:           ,NETZSCH DIL 402C
#PROJECT:              ,feldspar
#DATE/TIME:            ,8/25/2019 9:38:56 AM (UTC-5)
#CORR. FILE:           ,
#TEMPCAL:              ,TCALZERO.TMX
#LABORATORY:           ,Mineral Physics
#OPERATOR:             ,PAG
#REMARK:               ,bare, norm start, for short plageioclase, sapphire std, long direction 010, run 4th time
#SAMPLE:               ,hawk mine 010 run4
#SAMPLE LENGTH /mm:    ,8.25
#MATERIAL:             ,sapphire stnd
#MEASMODE:             ,Standard Expansion
#PURGE GAS 1:          ,ARGON
#FLOW RATE 1 /(ml/min):,75
#M.RANGE /µm:          ,500
#CORR. CODE:           ,010
#RANGE:                ,20.0°C/3.0(K/min)/250.0°C
#SEGMENT:              ,S1/1
#SEG. 1:               ,20.0°C/3.0(K/min)/250.0°C

##Temp./°C,Time/min,dL/Lo,Alpha/(1/K)
 22.66800, 0.00000, 2.4570e-005, 1.6580e-005
 24.16800, 5.22375, 2.4334e-005,-1.8087e-005
 25.66800, 5.77394,-3.3616e-008,-1.3521e-005
 27.16800, 6.19202,-1.7847e-005,-1.0512e-005
 28.66800, 6.55401,-3.2414e-005,-7.8600e-006
 30.16800, 6.88622,-4.1913e-005,-5.7298e-006
 31.66800, 7.20113,-4.9147e-005,-3.7396e-006
 33.16800, 7.50609,-5.3054e-005,-5.6272e-007
 34.66800, 7.80672,-5.3766e-005, 1.0537e-006
 36.16800, 8.10715,-5.1435e-005, 3.1518e-006
 37.66800, 8.40727,-4.5807e-005, 3.9985e-006
 39.16800, 8.70705,-3.8880e-005, 4.9243e-006
 40.66800, 9.00657,-3.0160e-005, 6.9206e-006
 42.16800, 9.30592,-1.8969e-005, 6.9227e-006
 43.66800, 9.60399,-7.3888e-006, 8.1313e-006
 45.16800, 9.90161, 4.9367e-006, 8.4836e-006
 46.66800,10.19726, 1.8010e-005, 9.2145e-006
 48.16800,10.48953, 3.1400e-005, 9.1260e-006
 49.66800,10.77912, 4.6419e-005, 9.6147e-006
 51.16800,11.06710, 6.1022e-005, 9.8695e-006
 52.66800,11.35266, 7.5961e-005, 1.0643e-005
 54.16800,11.63539, 9.1818e-005, 1.0441e-005
 55.66800,11.91621, 1.0771e-004, 1.0632e-005
 57.16800,12.19577, 1.2421e-004, 1.0838e-005
 58.66800,12.47375, 1.4189e-004, 1.1763e-005
 60.16800,12.75108, 1.5879e-004, 1.1726e-005
 61.66800,13.02780, 1.7659e-004, 1.2386e-005
 63.16800,13.30438, 1.9583e-004, 1.2807e-005
 64.66800,13.58050, 2.1506e-004, 1.2768e-005
 66.16800,13.85703, 2.3496e-004, 1.3741e-005
 67.66800,14.13487, 2.5543e-004, 1.3368e-005
 69.16800,14.41451, 2.7641e-004, 1.4250e-005
 70.66800,14.69510, 2.9761e-004, 1.4817e-005
 72.16800,14.97565, 3.1911e-004, 1.4379e-005
 73.66800,15.25605, 3.4134e-004, 1.4665e-005
 75.16800,15.53792, 3.6371e-004, 1.5376e-005
 76.66800,15.82138, 3.8680e-004, 1.5438e-005
 78.16800,16.10494, 4.1000e-004, 1.5744e-005
 79.66800,16.38919, 4.3356e-004, 1.5345e-005
 81.16800,16.67397, 4.5660e-004, 1.6083e-005
 82.66800,16.96029, 4.8029e-004, 1.5746e-005
 84.16800,17.24790, 5.0405e-004, 1.6227e-005
 85.66800,17.53636, 5.2776e-004, 1.6181e-005
 87.16800,17.82567, 5.5211e-004, 1.5855e-005
 88.66800,18.11576, 5.7583e-004, 1.6370e-005
 90.16800,18.40688, 6.0041e-004, 1.6552e-005
 91.66800,18.69925, 6.2465e-004, 1.6478e-005
 93.16800,18.99313, 6.4979e-004, 1.6299e-005
 94.66800,19.28800, 6.7465e-004, 1.6167e-005
 96.16800,19.58375, 6.9996e-004, 1.6898e-005
 97.66800,19.88152, 7.2577e-004, 1.6989e-005
 99.16800,20.17995, 7.5104e-004, 1.6713e-005
100.668,20.47912, 7.7674e-004, 1.6758e-005
102.168,20.77887, 8.0250e-004, 1.6681e-005
103.668,21.07851, 8.2859e-004, 1.6840e-005
105.168,21.37893, 8.5442e-004, 1.7349e-005
106.668,21.68151, 8.8008e-004, 1.7392e-005
108.168,21.98479, 9.0598e-004, 1.8352e-005
109.668,22.28854, 9.3308e-004, 1.7283e-005
111.168,22.59388, 9.6063e-004, 1.7577e-005
112.668,22.90041, 9.8798e-004, 1.9524e-005
114.168,23.20679, 1.0149e-003, 1.7599e-005
115.668,23.51348, 1.0432e-003, 1.9697e-005
117.168,23.82082, 1.0698e-003, 1.7643e-005
118.668,24.12909, 1.0970e-003, 1.7312e-005
120.168,24.43802, 1.1244e-003, 1.8241e-005
121.668,24.74838, 1.1520e-003, 1.7685e-005
123.168,25.06161, 1.1794e-003, 1.7877e-005
124.668,25.37547, 1.2077e-003, 1.8771e-005
126.168,25.68751, 1.2336e-003, 1.7699e-005
127.668,25.99972, 1.2602e-003, 1.8068e-005
129.168,26.31244, 1.2873e-003, 1.8478e-005
130.668,26.62566, 1.3137e-003, 1.7689e-005
132.168,26.93990, 1.3405e-003, 1.7429e-005
133.668,27.25461, 1.3671e-003, 1.7559e-005
135.168,27.57026, 1.3942e-003, 1.7872e-005
136.668,27.88631, 1.4216e-003, 1.7445e-005
138.168,28.20356, 1.4488e-003, 1.7883e-005
139.668,28.52154, 1.4762e-003, 1.7686e-005
141.168,28.83917, 1.5039e-003, 1.7388e-005
142.668,29.15561, 1.5301e-003, 1.8259e-005
144.168,29.47257, 1.5568e-003, 1.7231e-005
145.668,29.79142, 1.5838e-003, 1.8683e-005
147.168,30.11193, 1.6110e-003, 1.8489e-005
148.668,30.43300, 1.6386e-003, 1.8640e-005
150.168,30.75416, 1.6670e-003, 1.8392e-005
151.668,31.07595, 1.6945e-003, 1.8325e-005
153.168,31.39907, 1.7224e-003, 1.8481e-005
154.668,31.72251, 1.7506e-003, 1.9173e-005
156.168,32.04601, 1.7783e-003, 1.8317e-005
157.668,32.37004, 1.8062e-003, 1.8824e-005
159.168,32.69392, 1.8335e-003, 1.9165e-005
160.668,33.01805, 1.8616e-003, 1.7851e-005
162.168,33.34278, 1.8889e-003, 1.9019e-005
163.668,33.66812, 1.9167e-003, 1.8698e-005
165.168,33.99350, 1.9448e-003, 1.8075e-005
166.668,34.31985, 1.9726e-003, 1.8692e-005
168.168,34.64665, 2.0006e-003, 1.7859e-005
169.668,34.97327, 2.0289e-003, 1.9313e-005
171.168,35.30209, 2.0570e-003, 1.7802e-005
172.668,35.63157, 2.0850e-003, 1.8404e-005
174.168,35.96130, 2.1134e-003, 1.8610e-005
175.668,36.29201, 2.1422e-003, 1.9740e-005
177.168,36.62355, 2.1706e-003, 1.9523e-005
178.668,36.95545, 2.1996e-003, 1.9731e-005
180.168,37.28705, 2.2280e-003, 1.8972e-005
181.668,37.61953, 2.2558e-003, 1.8558e-005
183.168,37.95102, 2.2841e-003, 1.9134e-005
184.668,38.28293, 2.3130e-003, 1.9058e-005
186.168,38.61703, 2.3417e-003, 1.8516e-005
187.668,38.95124, 2.3702e-003, 1.8738e-005
189.168,39.28564, 2.3995e-003, 1.8733e-005
190.668,39.62055, 2.4283e-003, 1.8897e-005
192.168,39.95585, 2.4580e-003, 1.9552e-005
193.668,40.29190, 2.4874e-003, 2.0296e-005
195.168,40.62887, 2.5172e-003, 2.0409e-005
196.668,40.96646, 2.5484e-003, 2.1709e-005
198.168,41.30487, 2.5776e-003, 2.0493e-005
199.668,41.64335, 2.6072e-003, 1.9548e-005
201.168,41.98247, 2.6372e-003, 1.9233e-005
202.668,42.32283, 2.6657e-003, 2.0390e-005
204.168,42.66387, 2.6956e-003, 2.0055e-005
205.668,43.00554, 2.7250e-003, 1.9664e-005
207.168,43.34768, 2.7543e-003, 1.8627e-005
208.668,43.69100, 2.7841e-003, 1.8982e-005
210.168,44.03458, 2.8132e-003, 1.9328e-005
211.668,44.37926, 2.8427e-003, 1.9756e-005
213.168,44.72485, 2.8711e-003, 1.9396e-005
214.668,45.07012, 2.9006e-003, 1.9936e-005
216.168,45.41554, 2.9291e-003, 1.8132e-005
217.668,45.76187, 2.9581e-003, 1.9517e-005
219.168,46.10869, 2.9862e-003, 1.8776e-005
220.668,46.45614, 3.0147e-003, 1.9663e-005
222.168,46.80447, 3.0431e-003, 1.9083e-005
223.668,47.15287, 3.0720e-003, 1.9341e-005
225.168,47.50262, 3.1011e-003, 1.9382e-005
226.668,47.85357, 3.1313e-003, 2.0904e-005
228.168,48.20381, 3.1609e-003, 2.0517e-005
229.668,48.55452, 3.1909e-003, 2.0287e-005
231.168,48.90700, 3.2204e-003, 2.0497e-005
232.668,49.26011, 3.2506e-003, 1.9192e-005
234.168,49.61346, 3.2804e-003, 2.0251e-005
235.668,49.96795, 3.3115e-003, 2.0090e-005
237.168,50.32276, 3.3413e-003, 1.9394e-005
238.668,50.67757, 3.3710e-003, 1.9840e-005
240.168,51.03450, 3.4016e-003, 2.0501e-005
241.668,51.39127, 3.4318e-003, 1.9857e-005
243.168,51.74774, 3.4617e-003, 2.0428e-005
244.668,52.10550, 3.4910e-003, 1.9381e-005
246.168,52.46390, 3.5205e-003, 1.9243e-005
247.668,52.82422, 3.5501e-003, 1.9904e-005
249.168,53.18534, 3.5805e-003, 2.0622e-005
250.668,53.54606, 3.6088e-003, 1.8789e-005
252.168,53.90709, 3.6378e-003, 1.8313e-005
253.668,54.26879, 3.6665e-003, 1.8206e-005
255.168,54.63186, 3.6957e-003, 1.9145e-005
256.668,54.99580, 3.7256e-003, 1.9830e-005
258.168,55.36036, 3.7548e-003, 1.9707e-005
259.668,55.72597, 3.7844e-003, 1.9894e-005
261.168,56.09186, 3.8143e-003, 1.9574e-005
262.668,56.45773, 3.8430e-003, 1.9398e-005
264.168,56.82454, 3.8717e-003, 1.8383e-005
265.668,57.19251, 3.8999e-003, 1.8510e-005
267.168,57.56091, 3.9289e-003, 2.0800e-005
268.668,57.92882, 3.9576e-003, 2.0168e-005
270.168,58.29825, 3.9871e-003, 1.9225e-005
271.668,58.66952, 4.0173e-003, 1.9259e-005
273.168,59.04095, 4.0467e-003, 1.8181e-005
274.668,59.41278, 4.0769e-003, 2.0126e-005
276.168,59.78544, 4.1066e-003, 2.0324e-005
277.668,60.15945, 4.1366e-003, 1.8783e-005
279.168,60.53423, 4.1652e-003, 2.0297e-005
279.668,60.65893, 4.1766e-003, 1.9949e-005