Folder: thermal-expansion/data_backup/8.1mm (part 2)

File: moon000s3r1-10.1mm.csv
#EXPORTTYPE:           ,DATA ALL
#FILE:                 ,moonstoneSam3.ngb-sle
#FORMAT:               ,NETZSCH5
#FTYPE:                ,ANSI
#IDENTITY:             ,moonstone 3 short
#DECIMAL:              ,POINT
#SEPARATOR:            ,COMMA
#MTYPE:                ,DIL
#INSTRUMENT:           ,NETZSCH DIL 402C
#PROJECT:              ,feldspar
#DATE/TIME:            ,9/16/2019 9:41:48 AM (UTC-5)
#CORR. FILE:           ,
#TEMPCAL:              ,TCALZERO.TMX
#LABORATORY:           ,Mineral Physics
#OPERATOR:             ,PAG
#REMARK:               ,bare, norm start, for oligoclase, moonstone #3 short and reaonably thin. rectancgle, large up
#SAMPLE:               ,moonstone 3 fresh
#SAMPLE LENGTH /mm:    ,10.090
#MATERIAL:             ,sapphire stnd
#MEASMODE:             ,Standard Expansion
#PURGE GAS 1:          ,ARGON
#FLOW RATE 1 /(ml/min):,75
#M.RANGE /µm:          ,500
#CORR. CODE:           ,010
#RANGE:                ,20.0°C/3.0(K/min)/800.0°C
#SEGMENT:              ,S1/1
#SEG. 1:               ,20.0°C/3.0(K/min)/800.0°C

##Temp./°C,Time/min,dL/Lo
 22.42400,  0.00000, 2.1575e-005
 25.42400,  5.68534,-8.4632e-006
 28.42400,  6.48693,-9.2396e-006
 31.42400,  7.14526, 5.0667e-006
 34.42400,  7.76124, 3.1209e-005
 37.42400,  8.36705, 6.6927e-005
 40.42400,  8.97529, 1.1033e-004
 43.42400,  9.57836, 1.5882e-004
 46.42400, 10.17782, 2.0734e-004
 49.42400, 10.76786, 2.5424e-004
 52.42400, 11.34704, 3.0217e-004
 55.42400, 11.91840, 3.4846e-004
 58.42400, 12.48189, 3.9667e-004
 61.42400, 13.04017, 4.4789e-004
 64.42400, 13.59548, 5.0238e-004
 67.42400, 14.15283, 5.5799e-004
 70.42400, 14.71251, 6.1761e-004
 73.42400, 15.27708, 6.8116e-004
 76.42400, 15.84327, 7.4504e-004
 79.42400, 16.41223, 8.0715e-004
 82.42400, 16.98335, 8.7338e-004
 85.42400, 17.56080, 9.3947e-004
 88.42400, 18.14140, 1.0036e-003
 91.42400, 18.72535, 1.0708e-003
 94.42400, 19.31177, 1.1441e-003
 97.42400, 19.90388, 1.2156e-003
100.424, 20.49995, 1.2870e-003
103.424, 21.10057, 1.3592e-003
106.424, 21.70552, 1.4236e-003
109.424, 22.31171, 1.4876e-003
112.424, 22.91985, 1.5523e-003
115.424, 23.53132, 1.6137e-003
118.424, 24.14466, 1.6787e-003
121.424, 24.76037, 1.7443e-003
124.424, 25.38032, 1.8083e-003
127.424, 26.00398, 1.8746e-003
130.424, 26.62937, 1.9411e-003
133.424, 27.25743, 2.0070e-003
136.424, 27.89036, 2.0732e-003
139.424, 28.52385, 2.1370e-003
142.424, 29.15822, 2.2009e-003
145.424, 29.79887, 2.2674e-003
148.424, 30.43868, 2.3350e-003
151.424, 31.08106, 2.4018e-003
154.424, 31.72737, 2.4697e-003
157.424, 32.37593, 2.5364e-003
160.424, 33.02348, 2.6022e-003
163.424, 33.67347, 2.6682e-003
166.424, 34.32872, 2.7341e-003
169.424, 34.98687, 2.8004e-003
172.424, 35.64861, 2.8669e-003
175.424, 36.30957, 2.9345e-003
178.424, 36.97354, 3.0010e-003
181.424, 37.63913, 3.0657e-003
184.424, 38.30542, 3.1328e-003
187.424, 38.97520, 3.1983e-003
190.424, 39.65060, 3.2624e-003
193.424, 40.32760, 3.3268e-003
196.424, 41.00605, 3.3918e-003
199.424, 41.68779, 3.4528e-003
202.424, 42.37266, 3.5199e-003
205.424, 43.06187, 3.5873e-003
208.424, 43.75303, 3.6550e-003
211.424, 44.44610, 3.7195e-003
214.424, 45.14574, 3.7860e-003
217.424, 45.84433, 3.8509e-003
220.424, 46.54494, 3.9177e-003
223.424, 47.24992, 3.9877e-003
226.424, 47.95795, 4.0581e-003
229.424, 48.67371, 4.1275e-003
232.424, 49.39568, 4.1980e-003
235.424, 50.12154, 4.2660e-003
238.424, 50.84217, 4.3326e-003
241.424, 51.55062, 4.3958e-003
244.424, 52.24711, 4.4590e-003
247.424, 52.93592, 4.5204e-003
250.424, 53.62109, 4.5376e-003
253.424, 54.30981, 4.5826e-003
256.424, 55.00530, 4.6462e-003
259.424, 55.70703, 4.7127e-003
262.424, 56.41771, 4.7807e-003
265.424, 57.13618, 4.8469e-003
268.424, 57.86222, 4.9139e-003
271.424, 58.59375, 4.9818e-003
274.424, 59.33077, 5.0501e-003
277.424, 60.07520, 5.1183e-003
280.424, 60.82925, 5.1865e-003
283.424, 61.58996, 5.2537e-003
286.424, 62.35345, 5.3207e-003
289.424, 63.12073, 5.3895e-003
292.424, 63.89366, 5.4562e-003
295.424, 64.67070, 5.5242e-003
298.424, 65.45348, 5.5903e-003
301.424, 66.23903, 5.6582e-003
304.424, 67.02797, 5.7262e-003
307.424, 67.82100, 5.7916e-003
310.424, 68.61540, 5.8584e-003
313.424, 69.41310, 5.9240e-003
316.424, 70.21568, 5.9916e-003
319.424, 71.02175, 6.0545e-003
322.424, 71.82762, 6.1158e-003
325.424, 72.63726, 6.1354e-003
328.424, 73.45072, 6.1821e-003
331.424, 74.27038, 6.2102e-003
334.424, 75.08728, 6.2648e-003
337.424, 75.90713, 6.3364e-003
340.424, 76.73015, 6.3880e-003
343.424, 77.55236, 6.4527e-003
346.424, 78.38204, 6.5171e-003
349.424, 79.21463, 6.5841e-003
352.424, 80.04852, 6.6486e-003
355.424, 80.88441, 6.7161e-003
358.424, 81.72352, 6.7829e-003
361.424, 82.56518, 6.8487e-003
364.424, 83.41076, 6.9164e-003
367.424, 84.26339, 6.9857e-003
370.424, 85.11776, 7.0508e-003
373.424, 85.97386, 7.1201e-003
376.424, 86.83390, 7.1862e-003
379.424, 87.69261, 7.2536e-003
382.424, 88.55576, 7.3218e-003
385.424, 89.42347, 7.3910e-003
388.424, 90.28962, 7.4610e-003
391.424, 91.16383, 7.5313e-003
394.424, 92.03942, 7.5994e-003
397.424, 92.91906, 7.6700e-003
400.424, 93.80138, 7.7384e-003
403.424, 94.68625, 7.8073e-003
406.424, 95.57507, 7.8770e-003
409.424, 96.46293, 7.9494e-003
412.424, 97.35642, 8.0218e-003
415.424, 98.25332, 8.0966e-003
418.424, 99.15578, 8.1683e-003
421.424,100.061, 8.2448e-003
424.424,100.966, 8.3182e-003
427.424,101.875, 8.3945e-003
430.424,102.783, 8.4715e-003
433.424,103.695, 8.5492e-003
436.424,104.612, 8.6283e-003
439.424,105.531, 8.7100e-003
442.424,106.466, 8.7916e-003
445.424,107.41, 8.8706e-003
448.424,108.343, 8.9481e-003
451.424,109.249, 9.0249e-003
454.424,110.147, 9.1009e-003
457.424,111.045, 9.1767e-003
460.424,111.951, 9.2541e-003
463.424,112.869, 9.3339e-003
466.424,113.791, 9.4110e-003
469.424,114.72, 9.4889e-003
472.424,115.661, 9.5721e-003
475.424,116.623, 9.6533e-003
478.424,117.6, 9.7325e-003
481.424,118.564, 9.8111e-003
484.424,119.508, 9.8852e-003
487.424,120.431, 9.9626e-003
490.424,121.357, 1.0038e-002
493.424,122.296, 1.0117e-002
496.424,123.248, 1.0194e-002
499.424,124.204, 1.0273e-002
502.424,125.173, 1.0349e-002
505.424,126.148, 1.0428e-002
508.424,127.125, 1.0506e-002
511.424,128.113, 1.0583e-002
514.424,129.108, 1.0661e-002
517.424,130.101, 1.0740e-002
520.424,131.103, 1.0816e-002
523.424,132.105, 1.0894e-002
526.424,133.109, 1.0973e-002
529.424,134.123, 1.1051e-002
532.424,135.136, 1.1128e-002
535.424,136.151, 1.1206e-002
538.424,137.166, 1.1285e-002
541.424,138.189, 1.1360e-002
544.424,139.208, 1.1439e-002
547.424,140.236, 1.1518e-002
550.424,141.264, 1.1596e-002
553.424,142.291, 1.1672e-002
556.424,143.319, 1.1750e-002
559.424,144.351, 1.1830e-002
562.424,145.384, 1.1908e-002
565.424,146.419, 1.1986e-002
568.424,147.469, 1.2068e-002
571.424,148.539, 1.2150e-002
574.424,149.595, 1.2229e-002
577.424,150.621, 1.2303e-002
580.424,151.626, 1.2380e-002
583.424,152.638, 1.2459e-002
586.424,153.661, 1.2539e-002
589.424,154.694, 1.2618e-002
592.424,155.728, 1.2695e-002
595.424,156.772, 1.2774e-002
598.424,157.822, 1.2854e-002
601.424,158.878, 1.2934e-002
604.424,159.94, 1.3012e-002
607.424,161.001, 1.3092e-002
610.424,162.064, 1.3173e-002
613.424,163.136, 1.3253e-002
616.424,164.205, 1.3332e-002
619.424,165.281, 1.3413e-002
622.424,166.354, 1.3493e-002
625.424,167.428, 1.3574e-002
628.424,168.504, 1.3655e-002
631.424,169.585, 1.3733e-002
634.424,170.668, 1.3815e-002
637.424,171.754, 1.3896e-002
640.424,172.837, 1.3977e-002
643.424,173.92, 1.4059e-002
646.424,175.006, 1.4138e-002
649.424,176.099, 1.4220e-002
652.424,177.191, 1.4302e-002
655.424,178.292, 1.4386e-002
658.424,179.408, 1.4471e-002
661.424,180.529, 1.4551e-002
664.424,181.629, 1.4632e-002
667.424,182.703, 1.4712e-002
670.424,183.778, 1.4794e-002
673.424,184.852, 1.4876e-002
676.424,185.941, 1.4956e-002
679.424,187.039, 1.5038e-002
682.424,188.149, 1.5120e-002
685.424,189.263, 1.5204e-002
688.424,190.38, 1.5287e-002
691.424,191.508, 1.5367e-002
694.424,192.648, 1.5451e-002
697.424,193.79, 1.5535e-002
700.424,194.929, 1.5618e-002
703.424,196.067, 1.5701e-002
706.424,197.206, 1.5782e-002
709.424,198.348, 1.5864e-002
712.424,199.49, 1.5949e-002
715.424,200.642, 1.6035e-002
718.424,201.821, 1.6120e-002
721.424,202.983, 1.6204e-002
724.424,204.108, 1.6281e-002
727.424,205.218, 1.6363e-002
730.424,206.33, 1.6446e-002
733.424,207.451, 1.6529e-002
736.424,208.575, 1.6612e-002
739.424,209.706, 1.6695e-002
742.424,210.844, 1.6776e-002
745.424,211.987, 1.6859e-002
748.424,213.145, 1.6944e-002
751.424,214.296, 1.7027e-002
754.424,215.447, 1.7112e-002
757.424,216.604, 1.7197e-002
760.424,217.77, 1.7278e-002
763.424,218.937, 1.7363e-002
766.424,220.111, 1.7448e-002
769.424,222.051, 1.7571e-002
772.424,223.169, 1.7653e-002
775.424,224.303, 1.7737e-002
778.424,225.46, 1.7822e-002
781.424,226.655, 1.7907e-002
784.424,227.891, 1.7992e-002
787.424,229.08, 1.8075e-002
790.424,230.294, 1.8160e-002
793.424,231.481, 1.8243e-002
796.424,232.666, 1.8330e-002
799.424,233.877, 1.8415e-002
802.424,235.117, 1.8501e-002
805.424,236.409, 1.8588e-002
808.424,237.676, 1.8673e-002
811.424,238.91, 1.8761e-002
814.424,240.093, 1.8845e-002
817.424,241.253, 1.8932e-002
820.424,242.442, 1.9017e-002
823.424,243.622, 1.9102e-002
826.424,244.8, 1.9184e-002
829.424,245.964, 1.9268e-002
832.424,247.14, 1.9353e-002
835.424,248.404, 1.9446e-002
838.424,249.733, 1.9547e-002
841.424,250.746, 1.9621e-002
844.424,251.759, 1.9690e-002
847.424,252.896, 1.9771e-002
850.424,254.013, 1.9855e-002
851.424,254.392, 1.9883e-002

File: oligHawk001s1r1-7.0mm.csv
#EXPORTTYPE:           ,DATA ALL
#FILE:                 ,oligHawk001sam1.ngb-sle
#FORMAT:               ,NETZSCH5
#FTYPE:                ,ANSI
#IDENTITY:             ,hawkmine 001
#DECIMAL:              ,POINT
#SEPARATOR:            ,COMMA
#MTYPE:                ,DIL
#INSTRUMENT:           ,NETZSCH DIL 402C
#PROJECT:              ,feldspar
#DATE/TIME:            ,8/23/2019 9:50:19 AM (UTC-5)
#CORR. FILE:           ,
#TEMPCAL:              ,TCALZERO.TMX
#LABORATORY:           ,Mineral Physics
#OPERATOR:             ,PAG
#REMARK:               ,bare, norm start, for short plageioclase,hawk mine trapezoid 001 face,short direction
#SAMPLE:               ,oligioclase hawk
#SAMPLE LENGTH /mm:    ,7.035
#MATERIAL:             ,sapphire stnd
#MEASMODE:             ,Standard Expansion
#PURGE GAS 1:          ,ARGON
#FLOW RATE 1 /(ml/min):,75
#M.RANGE /µm:          ,500
#CORR. CODE:           ,010
#RANGE:                ,20.0°C/3.0(K/min)/1020.0°C
#SEGMENT:              ,S1/1
#SEG. 1:               ,20.0°C/3.0(K/min)/1020.0°C

##Temp./°C,Time/min,dL/Lo
  22.08200,  0.00000, 1.9445e-005
  25.58200,  5.61765,-5.1207e-005
  29.08200,  6.49505,-9.4249e-005
  32.58200,  7.24972,-1.1669e-004
  36.08200,  7.97608,-1.2195e-004
  39.58200,  8.69882,-1.1345e-004
  43.08200,  9.41768,-9.7147e-005
  46.58200, 10.12749,-7.6199e-005
  50.08200, 10.81936,-5.2650e-005
  53.58200, 11.49551,-2.6761e-005
  57.08200, 12.15982, 1.4318e-006
  60.58200, 12.81761, 3.2411e-005
  64.08200, 13.47485, 6.7214e-005
  67.58200, 14.13306, 1.0501e-004
  71.08200, 14.79391, 1.4638e-004
  74.58200, 15.45545, 1.8845e-004
  78.08200, 16.12239, 2.3140e-004
  81.58200, 16.79220, 2.7731e-004
  85.08200, 17.46531, 3.2327e-004
  88.58200, 18.14354, 3.7030e-004
  92.08200, 18.82637, 4.1839e-004
  95.58200, 19.51515, 4.6826e-004
  99.08200, 20.21019, 5.1797e-004
 102.582, 20.90658, 5.6803e-004
 106.082, 21.60755, 6.1934e-004
 109.582, 22.31099, 6.7067e-004
 113.082, 23.02117, 7.2241e-004
 116.582, 23.73643, 7.7368e-004
 120.082, 24.45469, 8.2544e-004
 123.582, 25.17586, 8.7684e-004
 127.082, 25.89936, 9.3014e-004
 130.582, 26.62499, 9.8308e-004
 134.082, 27.35684, 1.0363e-003
 137.582, 28.09135, 1.0897e-003
 141.082, 28.82915, 1.1429e-003
 144.582, 29.56954, 1.1971e-003
 148.082, 30.31340, 1.2502e-003
 151.582, 31.05870, 1.3046e-003
 155.082, 31.80868, 1.3574e-003
 158.582, 32.56324, 1.4123e-003
 162.082, 33.32143, 1.4664e-003
 165.582, 34.07998, 1.5205e-003
 169.082, 34.84105, 1.5746e-003
 172.582, 35.60591, 1.6286e-003
 176.082, 36.37259, 1.6827e-003
 179.582, 37.14297, 1.7374e-003
 183.082, 37.91677, 1.7917e-003
 186.582, 38.69364, 1.8454e-003
 190.082, 39.47288, 1.8992e-003
 193.582, 40.25602, 1.9522e-003
 197.082, 41.04171, 2.0060e-003
 200.582, 41.83216, 2.0608e-003
 204.082, 42.62849, 2.1147e-003
 207.582, 43.42614, 2.1693e-003
 211.082, 44.22615, 2.2225e-003
 214.582, 45.03049, 2.2770e-003
 218.082, 45.83959, 2.3309e-003
 221.582, 46.64917, 2.3851e-003
 225.082, 47.46501, 2.4394e-003
 228.582, 48.28310, 2.4938e-003
 232.082, 49.10375, 2.5474e-003
 235.582, 49.92910, 2.6015e-003
 239.082, 50.75591, 2.6559e-003
 242.582, 51.58884, 2.7100e-003
 246.082, 52.42372, 2.7641e-003
 249.582, 53.26235, 2.8184e-003
 253.082, 54.10690, 2.8719e-003
 256.582, 54.95576, 2.9257e-003
 260.082, 55.80883, 2.9803e-003
 263.582, 56.66522, 3.0340e-003
 267.082, 57.52682, 3.0878e-003
 270.582, 58.38950, 3.1416e-003
 274.082, 59.26049, 3.1954e-003
 277.582, 60.13336, 3.2488e-003
 281.082, 61.00655, 3.3029e-003
 284.582, 61.88830, 3.3566e-003
 288.082, 62.77198, 3.4105e-003
 291.582, 63.65951, 3.4645e-003
 295.082, 64.54978, 3.5177e-003
 298.582, 65.44680, 3.5714e-003
 302.082, 66.34745, 3.6260e-003
 305.582, 67.25490, 3.6785e-003
 309.082, 68.16007, 3.7319e-003
 312.582, 69.07394, 3.7846e-003
 316.082, 69.98741, 3.8380e-003
 319.582, 70.90833, 3.8904e-003
 323.082, 71.83397, 3.9439e-003
 326.582, 72.76342, 3.9972e-003
 330.082, 73.69732, 4.0513e-003
 333.582, 74.63735, 4.1074e-003
 337.082, 75.58876, 4.1648e-003
 340.582, 76.54542, 4.2208e-003
 344.082, 77.49569, 4.2729e-003
 347.582, 78.42529, 4.3215e-003
 351.082, 79.34060, 4.3688e-003
 354.582, 80.25242, 4.4169e-003
 358.082, 81.17259, 4.4676e-003
 361.582, 82.10736, 4.5193e-003
 365.082, 83.05281, 4.5720e-003
 368.582, 84.00781, 4.6240e-003
 372.082, 84.97365, 4.6771e-003
 375.582, 85.94665, 4.7303e-003
 379.082, 86.92973, 4.7828e-003
 382.582, 87.92021, 4.8364e-003
 386.082, 88.91707, 4.8882e-003
 389.582, 89.92014, 4.9406e-003
 393.082, 90.92858, 4.9941e-003
 396.582, 91.94267, 5.0471e-003
 400.082, 92.95931, 5.0987e-003
 403.582, 93.98302, 5.1514e-003
 407.082, 95.00662, 5.2034e-003
 410.582, 96.03672, 5.2552e-003
 414.082, 97.07006, 5.3076e-003
 417.582, 98.10494, 5.3589e-003
 421.082, 99.14050, 5.4106e-003
 424.582,100.185, 5.4623e-003
 428.082,101.233, 5.5146e-003
 431.582,102.286, 5.5646e-003
 435.082,103.339, 5.6157e-003
 438.582,104.393, 5.6679e-003
 442.082,105.451, 5.7202e-003
 445.582,106.518, 5.7715e-003
 449.082,107.588, 5.8160e-003
 452.582,108.661, 5.8669e-003
 456.082,109.737, 5.9161e-003
 459.582,110.817, 5.9639e-003
 463.082,111.907, 6.0157e-003
 466.582,112.995, 6.0665e-003
 470.082,114.083, 6.1160e-003
 473.582,115.171, 6.1669e-003
 477.082,116.261, 6.2184e-003
 480.582,117.369, 6.2693e-003
 484.082,118.476, 6.3211e-003
 487.582,119.582, 6.3722e-003
 491.082,120.697, 6.4243e-003
 494.582,121.828, 6.4804e-003
 498.082,122.98, 6.5385e-003
 501.582,124.127, 6.5936e-003
 505.082,125.245, 6.6388e-003
 508.582,126.324, 6.6848e-003
 512.082,127.392, 6.7322e-003
 515.582,128.474, 6.7782e-003
 519.082,129.568, 6.8285e-003
 522.582,130.68, 6.8783e-003
 526.082,131.806, 6.9283e-003
 529.582,132.943, 6.9794e-003
 533.082,134.091, 7.0311e-003
 536.582,135.251, 7.0820e-003
 540.082,136.415, 7.1329e-003
 543.582,137.581, 7.1846e-003
 547.082,138.757, 7.2365e-003
 550.582,139.933, 7.2883e-003
 554.082,141.116, 7.3397e-003
 557.582,142.303, 7.3914e-003
 561.082,143.489, 7.4423e-003
 564.582,144.681, 7.4945e-003
 568.082,145.879, 7.5448e-003
 571.582,147.074, 7.5966e-003
 575.082,148.272, 7.6473e-003
 578.582,149.479, 7.6979e-003
 582.082,150.684, 7.7497e-003
 585.582,151.892, 7.8023e-003
 589.082,153.105, 7.8544e-003
 592.582,154.314, 7.9060e-003
 596.082,155.527, 7.9589e-003
 599.582,156.757, 8.0165e-003
 603.082,158.005, 8.0694e-003
 606.582,159.226, 8.1198e-003
 610.082,160.411, 8.1681e-003
 613.582,161.595, 8.2188e-003
 617.082,162.794, 8.2708e-003
 620.582,164.005, 8.3230e-003
 624.082,165.226, 8.3747e-003
 627.582,166.457, 8.4252e-003
 631.082,167.697, 8.4781e-003
 634.582,168.941, 8.5296e-003
 638.082,170.189, 8.5824e-003
 641.582,171.445, 8.6357e-003
 645.082,172.701, 8.6891e-003
 648.582,173.966, 8.7417e-003
 652.082,175.233, 8.7933e-003
 655.582,176.497, 8.8462e-003
 659.082,177.768, 8.8980e-003
 662.582,179.037, 8.9497e-003
 666.082,180.311, 9.0007e-003
 669.582,181.588, 9.0532e-003
 673.082,182.869, 9.1033e-003
 676.582,184.154, 9.1557e-003
 680.082,185.438, 9.2080e-003
 683.582,186.749, 9.2629e-003
 687.082,188.089, 9.3182e-003
 690.582,189.406, 9.3684e-003
 694.082,190.684, 9.4167e-003
 697.582,191.97, 9.4657e-003
 701.082,193.27, 9.5152e-003
 704.582,194.577, 9.5644e-003
 708.082,195.9, 9.6134e-003
 711.582,197.229, 9.6629e-003
 715.082,198.554, 9.7077e-003
 718.582,199.882, 9.7575e-003
 722.082,201.22, 9.8075e-003
 725.582,202.556, 9.8572e-003
 729.082,203.895, 9.9069e-003
 732.582,205.239, 9.9577e-003
 736.082,206.58, 1.0007e-002
 739.582,207.924, 1.0054e-002
 743.082,209.266, 1.0104e-002
 746.582,210.608, 1.0154e-002
 750.082,211.951, 1.0204e-002
 753.582,213.311, 1.0256e-002
 757.082,214.698, 1.0310e-002
 760.582,216.084, 1.0361e-002
 764.082,217.419, 1.0406e-002
 767.582,218.733, 1.0454e-002
 771.082,220.052, 1.0502e-002
 774.582,221.38, 1.0551e-002
 778.082,222.717, 1.0602e-002
 781.582,224.069, 1.0650e-002
 785.082,225.423, 1.0701e-002
 788.582,226.786, 1.0751e-002
 792.082,228.211, 1.0800e-002
 795.582,229.655, 1.0850e-002
 799.082,231.131, 1.0901e-002
 802.582,232.735, 1.0961e-002
 806.082,234.264, 1.1014e-002
 809.582,235.76, 1.1060e-002
 813.082,237.223, 1.1109e-002
 816.582,238.637, 1.1152e-002
 820.082,240.038, 1.1199e-002
 823.582,241.458, 1.1246e-002
 827.082,242.86, 1.1294e-002
 830.582,244.252, 1.1338e-002
 834.082,245.631, 1.1385e-002
 837.582,247, 1.1432e-002
 841.082,248.36, 1.1481e-002
 844.582,249.715, 1.1527e-002
 848.082,251.073, 1.1574e-002
 851.582,252.424, 1.1623e-002
 855.082,253.795, 1.1672e-002
 858.582,255.178, 1.1721e-002
 862.082,256.576, 1.1777e-002
 865.582,258.074, 1.1825e-002
 869.082,259.616, 1.1875e-002
 872.582,260.996, 1.1917e-002
 876.082,262.309, 1.1966e-002
 879.582,263.666, 1.2011e-002
 883.082,265.029, 1.2061e-002
 886.582,266.402, 1.2113e-002
 890.082,267.791, 1.2164e-002
 893.582,269.171, 1.2245e-002
 897.082,270.548, 1.2394e-002
 900.582,271.919, 1.3470e-002
 904.082,273.323, 1.4775e-002
 907.582,274.737, 1.5949e-002
 911.082,276.242, 1.7330e-002
 914.582,278.021, 1.8009e-002
 918.082,279.821, 1.8480e-002
 921.582,281.15, 1.8677e-002
 925.082,282.466, 1.8889e-002
 928.582,283.787, 1.9078e-002
 932.082,285.131, 1.9219e-002
 935.582,286.473, 1.9411e-002
 939.082,287.807, 1.9563e-002
 942.582,289.144, 1.9684e-002
 946.082,290.482, 1.9795e-002
 949.582,291.808, 1.9878e-002
 953.082,293.109, 1.9955e-002
 956.582,294.4, 2.0027e-002
 960.082,295.735, 2.0107e-002
 963.582,297.073, 2.0178e-002
 967.082,298.43, 2.0251e-002
 970.582,299.711, 2.0319e-002
 974.082,300.968, 2.0390e-002
 977.582,302.249, 2.0462e-002
 981.082,303.536, 2.0536e-002
 984.582,304.809, 2.0607e-002
 988.082,306.081, 2.0680e-002
 991.582,307.384, 2.0752e-002
 995.082,308.683, 2.0821e-002
 998.582,309.976, 2.0888e-002
1002.08,311.288, 2.0953e-002
1005.58,312.58, 2.1015e-002
1009.08,313.899, 2.1077e-002
1011.08,314.65, 2.1111e-002