Folder: thermal-expansion/data_backup/8.1mm

Note: README.md
# thermal-expansion
Calculates linear and volume alphas from dilatometer data (Netzsch DIL-402c) by curve fitting

File: ExpDat_sapph8.1mm08192019.csv
#EXPORTTYPE:           ,DATA ALL
#FILE:                 ,sapph8mm08192019.ngb-cle
#FORMAT:               ,NETZSCH5
#FTYPE:                ,ANSI
#IDENTITY:             ,sapphire 8 mm
#DECIMAL:              ,POINT
#SEPARATOR:            ,COMMA
#MTYPE:                ,DIL
#INSTRUMENT:           ,NETZSCH DIL 402C
#PROJECT:              ,feldspar
#DATE/TIME:            ,8/19/2019 9:42:37 AM (UTC-5)
#CORR. FILE:           ,
#TEMPCAL:              ,TCALZERO.TMX
#LABORATORY:           ,Mineral Physics
#OPERATOR:             ,PAG
#REMARK:               ,bare, norm start, for short plageioclase
#SAMPLE:               ,stnd saph 8
#SAMPLE LENGTH /mm:    ,8.092
#MATERIAL:             ,sapphire stnd
#MEASMODE:             ,Standard Expansion
#PURGE GAS 1:          ,ARGON
#FLOW RATE 1 /(ml/min):,75
#M.RANGE /µm:          ,500
#CORR. CODE:           ,010
#RANGE:                ,20.0°C/3.0(K/min)/1100.0°C
#SEGMENT:              ,S1/1
#SEG. 1:               ,20.0°C/3.0(K/min)/1100.0°C

##Temp./°C,Time/min,dL/Lo
  22.72300,  0.00000, 2.3712e-005
  26.72300,  6.08430,-4.2922e-005
  30.72300,  7.04938,-6.4779e-005
  34.72300,  7.89803,-6.4276e-005
  38.72300,  8.72736,-4.5857e-005
  42.72300,  9.55156,-1.6446e-005
  46.72300, 10.36597, 1.8212e-005
  50.72300, 11.15780, 5.5326e-005
  54.72300, 11.92972, 9.5354e-005
  58.72300, 12.68793, 1.3858e-004
  62.72300, 13.43856, 1.8559e-004
  66.72300, 14.18779, 2.3689e-004
  70.72300, 14.94140, 2.9136e-004
  74.72300, 15.69849, 3.4863e-004
  78.72300, 16.45990, 4.0708e-004
  82.72300, 17.22587, 4.6857e-004
  86.72300, 18.00161, 5.3262e-004
  90.72300, 18.78104, 5.9932e-004
  94.72300, 19.57344, 6.6795e-004
  98.72300, 20.37462, 7.3707e-004
 102.723, 21.17895, 8.0437e-004
 106.723, 21.98066, 8.7084e-004
 110.723, 22.77239, 9.3582e-004
 114.723, 23.55754, 1.0008e-003
 118.723, 24.33949, 1.0660e-003
 122.723, 25.12469, 1.1326e-003
 126.723, 25.91400, 1.2010e-003
 130.723, 26.71234, 1.2700e-003
 134.723, 27.52014, 1.3405e-003
 138.723, 28.33175, 1.4118e-003
 142.723, 29.15334, 1.4828e-003
 146.723, 29.98219, 1.5550e-003
 150.723, 30.81873, 1.6272e-003
 154.723, 31.66304, 1.6995e-003
 158.723, 32.51283, 1.7725e-003
 162.723, 33.36930, 1.8447e-003
 166.723, 34.23421, 1.9173e-003
 170.723, 35.10421, 1.9908e-003
 174.723, 35.98046, 2.0635e-003
 178.723, 36.86010, 2.1364e-003
 182.723, 37.74530, 2.2099e-003
 186.723, 38.63720, 2.2819e-003
 190.723, 39.53336, 2.3547e-003
 194.723, 40.43320, 2.4273e-003
 198.723, 41.33842, 2.5005e-003
 202.723, 42.24865, 2.5732e-003
 206.723, 43.16172, 2.6449e-003
 210.723, 44.07627, 2.7173e-003
 214.723, 44.99594, 2.7893e-003
 218.723, 45.92099, 2.8622e-003
 222.723, 46.85262, 2.9346e-003
 226.723, 47.78619, 3.0065e-003
 230.723, 48.72595, 3.0795e-003
 234.723, 49.66796, 3.1510e-003
 238.723, 50.61438, 3.2232e-003
 242.723, 51.56784, 3.2956e-003
 246.723, 52.52819, 3.3685e-003
 250.723, 53.49082, 3.4409e-003
 254.723, 54.45751, 3.5131e-003
 258.723, 55.42990, 3.5851e-003
 262.723, 56.40503, 3.6563e-003
 266.723, 57.38757, 3.7291e-003
 270.723, 58.37391, 3.8018e-003
 274.723, 59.36371, 3.8740e-003
 278.723, 60.36304, 3.9460e-003
 282.723, 61.36448, 4.0174e-003
 286.723, 62.37243, 4.0896e-003
 290.723, 63.38695, 4.1614e-003
 294.723, 64.40615, 4.2338e-003
 298.723, 65.42992, 4.3061e-003
 302.723, 66.45996, 4.3773e-003
 306.723, 67.49448, 4.4488e-003
 310.723, 68.53590, 4.5216e-003
 314.723, 69.57986, 4.5928e-003
 318.723, 70.63084, 4.6643e-003
 322.723, 71.68530, 4.7360e-003
 326.723, 72.74369, 4.8074e-003
 330.723, 73.80906, 4.8794e-003
 334.723, 74.88020, 4.9507e-003
 338.723, 75.95769, 5.0209e-003
 342.723, 77.03765, 5.0929e-003
 346.723, 78.12401, 5.1652e-003
 350.723, 79.22362, 5.2365e-003
 354.723, 80.32486, 5.3079e-003
 358.723, 81.42684, 5.3779e-003
 362.723, 82.53604, 5.4490e-003
 366.723, 83.64937, 5.5209e-003
 370.723, 84.77089, 5.5914e-003
 374.723, 85.89658, 5.6628e-003
 378.723, 87.02463, 5.7343e-003
 382.723, 88.16171, 5.8062e-003
 386.723, 89.30260, 5.8799e-003
 390.723, 90.45872, 5.9555e-003
 394.723, 91.62911, 6.0296e-003
 398.723, 92.77799, 6.0986e-003
 402.723, 93.89484, 6.1644e-003
 406.723, 95.00482, 6.2320e-003
 410.723, 96.13151, 6.3024e-003
 414.723, 97.27237, 6.3729e-003
 418.723, 98.42686, 6.4434e-003
 422.723, 99.59622, 6.5151e-003
 426.723,100.782, 6.5867e-003
 430.723,101.977, 6.6579e-003
 434.723,103.179, 6.7299e-003
 438.723,104.389, 6.8009e-003
 442.723,105.626, 6.8727e-003
 446.723,106.852, 6.9434e-003
 450.723,108.079, 7.0139e-003
 454.723,109.311, 7.0852e-003
 458.723,110.549, 7.1560e-003
 462.723,111.791, 7.2276e-003
 466.723,113.038, 7.2983e-003
 470.723,114.285, 7.3698e-003
 474.723,115.539, 7.4410e-003
 478.723,116.799, 7.5120e-003
 482.723,118.069, 7.5833e-003
 486.723,119.338, 7.6542e-003
 490.723,120.609, 7.7249e-003
 494.723,121.891, 7.7958e-003
 498.723,123.174, 7.8662e-003
 502.723,124.46, 7.9368e-003
 506.723,125.755, 8.0060e-003
 510.723,127.053, 8.0770e-003
 514.723,128.353, 8.1476e-003
 518.723,129.662, 8.2189e-003
 522.723,130.973, 8.2897e-003
 526.723,132.286, 8.3603e-003
 530.723,133.605, 8.4316e-003
 534.723,134.949, 8.5078e-003
 538.723,136.309, 8.5822e-003
 542.723,137.632, 8.6496e-003
 546.723,138.912, 8.7175e-003
 550.723,140.202, 8.7864e-003
 554.723,141.511, 8.8575e-003
 558.723,142.836, 8.9274e-003
 562.723,144.177, 8.9988e-003
 566.723,145.53, 9.0702e-003
 570.723,146.892, 9.1408e-003
 574.723,148.261, 9.2116e-003
 578.723,149.636, 9.2833e-003
 582.723,151.02, 9.3539e-003
 586.723,152.402, 9.4261e-003
 590.723,153.808, 9.5026e-003
 594.723,155.243, 9.5786e-003
 598.723,156.64, 9.6467e-003
 602.723,157.995, 9.7144e-003
 606.723,159.342, 9.7843e-003
 610.723,160.713, 9.8544e-003
 614.723,162.099, 9.9265e-003
 618.723,163.501, 9.9966e-003
 622.723,164.908, 1.0067e-002
 626.723,166.333, 1.0139e-002
 630.723,167.758, 1.0210e-002
 634.723,169.19, 1.0281e-002
 638.723,170.625, 1.0353e-002
 642.723,172.068, 1.0424e-002
 646.723,173.512, 1.0496e-002
 650.723,174.957, 1.0567e-002
 654.723,176.406, 1.0639e-002
 658.723,177.86, 1.0711e-002
 662.723,179.317, 1.0782e-002
 666.723,180.781, 1.0853e-002
 670.723,182.242, 1.0925e-002
 674.723,183.71, 1.0997e-002
 678.723,185.199, 1.1072e-002
 682.723,186.72, 1.1148e-002
 686.723,188.215, 1.1219e-002
 690.723,189.667, 1.1288e-002
 694.723,191.13, 1.1360e-002
 698.723,192.62, 1.1431e-002
 702.723,194.121, 1.1503e-002
 706.723,195.635, 1.1575e-002
 710.723,197.158, 1.1647e-002
 714.723,198.684, 1.1718e-002
 718.723,200.205, 1.1790e-002
 722.723,201.732, 1.1861e-002
 726.723,203.268, 1.1934e-002
 730.723,204.797, 1.2005e-002
 734.723,206.328, 1.2077e-002
 738.723,207.864, 1.2149e-002
 742.723,209.403, 1.2221e-002
 746.723,210.939, 1.2294e-002
 750.723,212.489, 1.2369e-002
 754.723,214.078, 1.2444e-002
 758.723,215.637, 1.2515e-002
 762.723,217.14, 1.2586e-002
 766.723,218.647, 1.2657e-002
 770.723,220.167, 1.2728e-002
 774.723,221.701, 1.2800e-002
 778.723,223.248, 1.2873e-002
 782.723,224.813, 1.2946e-002
 786.723,226.455, 1.3020e-002
 790.723,228.144, 1.3097e-002
 794.723,229.861, 1.3169e-002
 798.723,231.558, 1.3246e-002
 802.723,233.343, 1.3320e-002
 806.723,235.054, 1.3391e-002
 810.723,236.686, 1.3463e-002
 814.723,238.333, 1.3540e-002
 818.723,239.985, 1.3611e-002
 822.723,241.548, 1.3680e-002
 826.723,243.083, 1.3749e-002
 830.723,244.615, 1.3820e-002
 834.723,246.137, 1.3889e-002
 838.723,247.668, 1.3961e-002
 842.723,249.204, 1.4033e-002
 846.723,250.733, 1.4103e-002
 850.723,252.267, 1.4176e-002
 854.723,253.808, 1.4248e-002
 858.723,255.313, 1.4317e-002
 862.723,256.874, 1.4393e-002
 866.723,258.432, 1.4465e-002
 870.723,260.032, 1.4542e-002
 874.723,261.773, 1.4622e-002
 878.723,263.405, 1.4692e-002
 882.723,264.95, 1.4764e-002
 886.723,266.503, 1.4835e-002
 890.723,268.056, 1.4908e-002
 894.723,269.628, 1.4980e-002
 898.723,271.221, 1.5052e-002
 902.723,272.831, 1.5125e-002
 906.723,274.489, 1.5200e-002
 910.723,276.228, 1.5277e-002
 914.723,278.372, 1.5362e-002
 918.723,280.268, 1.5430e-002
 922.723,281.741, 1.5503e-002
 926.723,283.463, 1.5581e-002
 930.723,285.03, 1.5648e-002
 934.723,286.568, 1.5719e-002
 938.723,288.079, 1.5789e-002
 942.723,289.617, 1.5860e-002
 946.723,291.126, 1.5931e-002
 950.723,292.667, 1.6003e-002
 954.723,294.193, 1.6073e-002
 958.723,295.656, 1.6143e-002
 962.723,297.207, 1.6219e-002
 966.723,298.724, 1.6289e-002
 970.723,300.247, 1.6363e-002
 974.723,301.746, 1.6438e-002
 978.723,303.205, 1.6510e-002
 982.723,304.626, 1.6581e-002
 986.723,306.028, 1.6653e-002
 990.723,307.456, 1.6727e-002
 994.723,308.953, 1.6802e-002
 998.723,310.452, 1.6875e-002
1002.72,311.981, 1.6949e-002
1006.72,313.52, 1.7023e-002
1010.72,315.025, 1.7095e-002
1014.72,316.499, 1.7167e-002
1018.72,317.99, 1.7241e-002
1022.72,319.481, 1.7314e-002
1026.72,320.982, 1.7390e-002
1030.72,322.428, 1.7462e-002
1034.72,323.971, 1.7536e-002
1038.72,325.468, 1.7609e-002
1042.72,327.1, 1.7686e-002
1046.72,328.438, 1.7747e-002
1050.72,329.86, 1.7829e-002
1054.72,331.451, 1.7904e-002
1058.72,332.955, 1.7978e-002
1062.72,334.428, 1.8050e-002
1066.72,335.906, 1.8126e-002
1070.72,337.337, 1.8199e-002
1074.72,338.873, 1.8278e-002
1078.72,340.357, 1.8347e-002
1082.72,341.851, 1.8418e-002
1086.72,343.319, 1.8491e-002
1090.72,344.791, 1.8558e-002
1094.72,346.258, 1.8632e-002
1098.72,347.711, 1.8706e-002
1102.72,349.317, 1.8779e-002
1106.72,350.588, 1.8844e-002
1108.22,351.09, 1.8874e-002

File: fmt010sCr18.8mm.csv
#EXPORTTYPE:           ,DATA ALL
#FILE:                 ,fmtl010Crun1.ngb-sle
#FORMAT:               ,NETZSCH5
#FTYPE:                ,ANSI
#IDENTITY:             ,fmt short
#DECIMAL:              ,POINT
#SEPARATOR:            ,COMMA
#MTYPE:                ,DIL
#INSTRUMENT:           ,NETZSCH DIL 402C
#PROJECT:              ,feldspar
#DATE/TIME:            ,8/21/2019 9:53:35 AM (UTC-5)
#CORR. FILE:           ,
#TEMPCAL:              ,TCALZERO.TMX
#LABORATORY:           ,Mineral Physics
#OPERATOR:             ,PAG
#REMARK:               ,bare, norm start, for short plageioclase, fmt short probably 010
#SAMPLE:               ,fmt 3rd orientation
#SAMPLE LENGTH /mm:    ,8.776
#MATERIAL:             ,sapphire stnd
#MEASMODE:             ,Standard Expansion
#PURGE GAS 1:          ,ARGON
#FLOW RATE 1 /(ml/min):,75
#M.RANGE /µm:          ,500
#CORR. CODE:           ,010
#RANGE:                ,20.0°C/3.0(K/min)/1010.0°C
#SEGMENT:              ,S1/1
#SEG. 1:               ,20.0°C/3.0(K/min)/1010.0°C

##Temp./°C,Time/min,dL/Lo
  22.55400,  0.00000, 2.2540e-005
  26.05400,  5.89117,-4.5797e-005
  29.55400,  6.77958,-7.2492e-005
  33.05400,  7.53752,-8.1863e-005
  36.55400,  8.26129,-7.6894e-005
  40.05400,  8.98186,-6.1711e-005
  43.55400,  9.69993,-3.9634e-005
  47.05400, 10.40961,-1.4666e-005
  50.55400, 11.10079, 1.3292e-005
  54.05400, 11.77310, 4.2025e-005
  57.55400, 12.43817, 7.3859e-005
  61.05400, 13.09653, 1.0846e-004
  64.55400, 13.75466, 1.4575e-004
  68.05400, 14.41029, 1.8498e-004
  71.55400, 15.06882, 2.2678e-004
  75.05400, 15.73294, 2.7018e-004
  78.55400, 16.39825, 3.1478e-004
  82.05400, 17.06791, 3.6053e-004
  85.55400, 17.74243, 4.0733e-004
  89.05400, 18.42241, 4.5485e-004
  92.55400, 19.10705, 5.0327e-004
  96.05400, 19.79424, 5.5236e-004
  99.55400, 20.48755, 6.0255e-004
 103.054, 21.18623, 6.5242e-004
 106.554, 21.89082, 7.0259e-004
 110.054, 22.59665, 7.5263e-004
 113.554, 23.30409, 8.0345e-004
 117.054, 24.01603, 8.5473e-004
 120.554, 24.73449, 9.0622e-004
 124.054, 25.45532, 9.5761e-004
 127.554, 26.17846, 1.0097e-003
 131.054, 26.90879, 1.0611e-003
 134.554, 27.63938, 1.1139e-003
 138.054, 28.37236, 1.1659e-003
 141.554, 29.10926, 1.2182e-003
 145.054, 29.84794, 1.2706e-003
 148.554, 30.59167, 1.3234e-003
 152.054, 31.33700, 1.3760e-003
 155.554, 32.08573, 1.4291e-003
 159.054, 32.83898, 1.4823e-003
 162.554, 33.59620, 1.5353e-003
 166.054, 34.35370, 1.5890e-003
 169.554, 35.11801, 1.6424e-003
 173.054, 35.88413, 1.6960e-003
 176.554, 36.65132, 1.7501e-003
 180.054, 37.42526, 1.8037e-003
 183.554, 38.20012, 1.8572e-003
 187.054, 38.97779, 1.9108e-003
 190.554, 39.75704, 1.9649e-003
 194.054, 40.53987, 2.0185e-003
 197.554, 41.32584, 2.0717e-003
 201.054, 42.11925, 2.1262e-003
 204.554, 42.91478, 2.1797e-003
 208.054, 43.71473, 2.2337e-003
 211.554, 44.51494, 2.2895e-003
 215.054, 45.32336, 2.3466e-003
 218.554, 46.14165, 2.4037e-003
 222.054, 46.96684, 2.4594e-003
 225.554, 47.78992, 2.5135e-003
 229.054, 48.59641, 2.5648e-003
 232.554, 49.39042, 2.6140e-003
 236.054, 50.17955, 2.6639e-003
 239.554, 50.96627, 2.7149e-003
 243.054, 51.75894, 2.7671e-003
 246.554, 52.56256, 2.8204e-003
 250.054, 53.37712, 2.8739e-003
 253.554, 54.19709, 2.9279e-003
 257.054, 55.02551, 2.9813e-003
 260.554, 55.86354, 3.0356e-003
 264.054, 56.71062, 3.0896e-003
 267.554, 57.56340, 3.1437e-003
 271.054, 58.42340, 3.1984e-003
 274.554, 59.29037, 3.2527e-003
 278.054, 60.16446, 3.3073e-003
 281.554, 61.04332, 3.3608e-003
 285.054, 61.92743, 3.4154e-003
 288.554, 62.81675, 3.4697e-003
 292.054, 63.70868, 3.5236e-003
 295.554, 64.60697, 3.5788e-003
 299.054, 65.50991, 3.6349e-003
 302.554, 66.41887, 3.6880e-003
 306.054, 67.32822, 3.7430e-003
 309.554, 68.23993, 3.7986e-003
 313.054, 69.15859, 3.8535e-003
 316.554, 70.07997, 3.9076e-003
 320.054, 70.99942, 3.9622e-003
 323.554, 71.92552, 4.0160e-003
 327.054, 72.85456, 4.0704e-003
 330.554, 73.79040, 4.1248e-003
 334.054, 74.73032, 4.1791e-003
 337.554, 75.67738, 4.2336e-003
 341.054, 76.62217, 4.2880e-003
 344.554, 77.57091, 4.3419e-003
 348.054, 78.52436, 4.3953e-003
 351.554, 79.48482, 4.4499e-003
 355.054, 80.44969, 4.5052e-003
 358.554, 81.41586, 4.5594e-003
 362.054, 82.38616, 4.6121e-003
 365.554, 83.35818, 4.6663e-003
 369.054, 84.33793, 4.7204e-003
 372.554, 85.31951, 4.7752e-003
 376.054, 86.30188, 4.8291e-003
 379.554, 87.28763, 4.8817e-003
 383.054, 88.28037, 4.9365e-003
 386.554, 89.27777, 4.9918e-003
 390.054, 90.27857, 5.0462e-003
 393.554, 91.28459, 5.1003e-003
 397.054, 92.29558, 5.1551e-003
 400.554, 93.30771, 5.2091e-003
 404.054, 94.32761, 5.2618e-003
 407.554, 95.35236, 5.3161e-003
 411.054, 96.37810, 5.3707e-003
 414.554, 97.40611, 5.4251e-003
 418.054, 98.44005, 5.4799e-003
 421.554, 99.47637, 5.5329e-003
 425.054,100.515, 5.5874e-003
 428.554,101.559, 5.6416e-003
 432.054,102.605, 5.6959e-003
 435.554,103.658, 5.7494e-003
 439.054,104.714, 5.8063e-003
 442.554,105.79, 5.8648e-003
 446.054,106.873, 5.9223e-003
 449.554,107.942, 5.9742e-003
 453.054,108.979, 6.0257e-003
 456.554,110.005, 6.0767e-003
 460.054,111.039, 6.1301e-003
 463.554,112.085, 6.1857e-003
 467.054,113.145, 6.2393e-003
 470.554,114.219, 6.2941e-003
 474.054,115.3, 6.3473e-003
 477.554,116.392, 6.4028e-003
 481.054,117.492, 6.4574e-003
 484.554,118.598, 6.5128e-003
 488.054,119.711, 6.5674e-003
 491.554,120.831, 6.6230e-003
 495.054,121.954, 6.6761e-003
 498.554,123.077, 6.7315e-003
 502.054,124.209, 6.7867e-003
 505.554,125.359, 6.8464e-003
 509.054,126.52, 6.9051e-003
 512.554,127.662, 6.9566e-003
 516.054,128.765, 7.0082e-003
 519.554,129.857, 7.0599e-003
 523.054,130.961, 7.1144e-003
 526.554,132.079, 7.1698e-003
 530.054,133.212, 7.2254e-003
 533.554,134.351, 7.2808e-003
 537.054,135.505, 7.3348e-003
 540.554,136.664, 7.3904e-003
 544.054,137.832, 7.4453e-003
 547.554,139.01, 7.5019e-003
 551.054,140.185, 7.5572e-003
 554.554,141.362, 7.6131e-003
 558.054,142.546, 7.6693e-003
 561.554,143.736, 7.7241e-003
 565.054,144.926, 7.7803e-003
 568.554,146.119, 7.8370e-003
 572.054,147.311, 7.8919e-003
 575.554,148.509, 7.9487e-003
 579.054,149.716, 8.0057e-003
 582.554,150.92, 8.0599e-003
 586.054,152.123, 8.1168e-003
 589.554,153.333, 8.1743e-003
 593.054,154.544, 8.2295e-003
 596.554,155.761, 8.2868e-003
 600.054,156.983, 8.3417e-003
 603.554,158.202, 8.3986e-003
 607.054,159.425, 8.4544e-003
 610.554,160.659, 8.5141e-003
 614.054,161.924, 8.5750e-003
 617.554,163.18, 8.6322e-003
 621.054,164.394, 8.6839e-003
 624.554,165.584, 8.7395e-003
 628.054,166.784, 8.7962e-003
 631.554,167.997, 8.8504e-003
 635.054,169.226, 8.9105e-003
 638.554,170.465, 8.9650e-003
 642.054,171.711, 9.0231e-003
 645.554,172.965, 9.0808e-003
 649.054,174.226, 9.1389e-003
 652.554,175.49, 9.1935e-003
 656.054,176.757, 9.2515e-003
 659.554,178.032, 9.3073e-003
 663.054,179.304, 9.3655e-003
 666.554,180.579, 9.4225e-003
 670.054,181.867, 9.4814e-003
 673.554,183.147, 9.5388e-003
 677.054,184.424, 9.5955e-003
 680.554,185.725, 9.6562e-003
 684.054,187.059, 9.7179e-003
 687.554,188.394, 9.7767e-003
 691.054,189.67, 9.8332e-003
 694.554,190.947, 9.8899e-003
 698.054,192.248, 9.9472e-003
 701.554,193.551, 1.0004e-002
 705.054,194.869, 1.0062e-002
 708.554,196.193, 1.0121e-002
 712.054,197.523, 1.0180e-002
 715.554,198.854, 1.0237e-002
 719.054,200.187, 1.0295e-002
 722.554,201.504, 1.0353e-002
 726.054,202.843, 1.0413e-002
 729.554,204.193, 1.0471e-002
 733.054,205.533, 1.0530e-002
 736.554,206.874, 1.0589e-002
 740.054,208.212, 1.0659e-002
 743.554,209.553, 1.0719e-002
 747.054,210.894, 1.0779e-002
 750.554,212.237, 1.0839e-002
 754.054,213.608, 1.0904e-002
 757.554,215.002, 1.0969e-002
 761.054,216.341, 1.1046e-002
 764.554,217.646, 1.1103e-002
 768.054,218.954, 1.1162e-002
 771.554,220.278, 1.1221e-002
 775.054,221.606, 1.1281e-002
 778.554,222.943, 1.1341e-002
 782.054,224.288, 1.1401e-002
 785.554,225.649, 1.1465e-002
 789.054,227.016, 1.1524e-002
 792.554,228.398, 1.1585e-002
 796.054,229.839, 1.1649e-002
 799.554,231.298, 1.1710e-002
 803.054,232.763, 1.1774e-002
 806.554,234.225, 1.1838e-002
 810.054,235.708, 1.1899e-002
 813.554,237.217, 1.1965e-002
 817.054,238.713, 1.2031e-002
 820.554,240.204, 1.2096e-002
 824.054,241.611, 1.2155e-002
 827.554,242.971, 1.2214e-002
 831.054,244.346, 1.2276e-002
 834.554,245.719, 1.2334e-002
 838.054,247.085, 1.2392e-002
 841.554,248.448, 1.2454e-002
 845.054,249.807, 1.2517e-002
 848.554,251.157, 1.2576e-002
 852.054,252.508, 1.2639e-002
 855.554,253.854, 1.2701e-002
 859.054,255.205, 1.2761e-002
 862.554,256.553, 1.2824e-002
 866.054,257.904, 1.2885e-002
 869.554,259.244, 1.2946e-002
 873.054,260.624, 1.3013e-002
 876.554,262.034, 1.3080e-002
 880.054,263.396, 1.3140e-002
 883.554,264.722, 1.3203e-002
 887.054,266.011, 1.3268e-002
 890.554,267.4, 1.3335e-002
 894.054,268.767, 1.3399e-002
 897.554,270.152, 1.3464e-002
 901.054,271.554, 1.3526e-002
 904.554,272.998, 1.3593e-002
 908.054,274.486, 1.3661e-002
 911.554,276.01, 1.3729e-002
 915.054,277.547, 1.3797e-002
 918.554,279.312, 1.3872e-002
 922.054,281.047, 1.3934e-002
 925.554,282.644, 1.4011e-002
 929.054,284.023, 1.4072e-002
 932.554,285.388, 1.4137e-002
 936.054,286.777, 1.4201e-002
 939.554,288.186, 1.4269e-002
 943.054,289.515, 1.4332e-002
 946.554,290.868, 1.4393e-002
 950.054,292.216, 1.4459e-002
 953.554,293.575, 1.4525e-002
 957.054,294.899, 1.4589e-002
 960.554,296.218, 1.4652e-002
 964.054,297.511, 1.4715e-002
 967.554,298.828, 1.4782e-002
 971.054,300.159, 1.4850e-002
 974.554,301.502, 1.4918e-002
 978.054,302.829, 1.4987e-002
 981.554,304.124, 1.5056e-002
 985.054,305.396, 1.5124e-002
 988.554,306.661, 1.5189e-002
 992.054,307.934, 1.5262e-002
 995.554,309.256, 1.5330e-002
 999.054,310.492, 1.5401e-002
1002.55,311.759, 1.5470e-002
1006.05,313.039, 1.5543e-002
1009.55,314.328, 1.5616e-002
1013.05,315.631, 1.5688e-002
1016.55,316.939, 1.5758e-002
1020.05,318.234, 1.5833e-002
1023.55,319.533, 1.5909e-002
1027.05,320.786, 1.5984e-002
1030.55,322.152, 1.6060e-002
1034.05,323.456, 1.6132e-002
1037.55,324.746, 1.6205e-002
1039.55,325.461, 1.6247e-002