Folder: thermal-expansion/data_backup/8.1mm (part 5)

File: sanMtT0p3s1r1-4.35mm.csv
#EXPORTTYPE:           ,DATA ALL                      ,,
#FILE:                 ,sanidMtp3run1.ngb-sle         ,,
#FORMAT:               ,NETZSCH5                      ,,
#FTYPE:                ,ANSI                          ,,
#IDENTITY:             ,mt thrid orien                ,,
#DECIMAL:              ,POINT                         ,,
#SEPARATOR:            ,COMMA                         ,,
#MTYPE:                ,DIL                           ,,
#INSTRUMENT:           ,NETZSCH DIL 402C              ,,
#PROJECT:              ,morb                          ,,
#DATE/TIME:            ,11/14/2018 11:35:03 AM (UTC-6),,
#CORR. FILE:           ,                              ,,
#TEMPCAL:              ,TCALZERO.TMX                  ,,
#LABORATORY:           ,min phys                      ,,
#OPERATOR:             ,amh                           ,,
#REMARK:               ,bare, norm start, calib run
#SAMPLE:               ,mt t ortho010                 ,,
#SAMPLE LENGTH /mm:    ,4.35,,
#MATERIAL:             ,sapphire stnd                 ,,
#MEASMODE:             ,Standard Expansion            ,,
#PURGE GAS 1:          ,ARGON                         ,,
#FLOW RATE 1 /(ml/min):,75,,
#M.RANGE /�m:          ,500,,
#CORR. CODE:           ,10,,
#RANGE:                ,20.0�C/3.0(K/min)/950.0�C     ,,
#SEGMENT:              ,S1/1                          ,,
#SEG. 1:               ,20.0�C/3.0(K/min)/950.0�C     ,,
,,,
##Temp./�C,Time/min,dL/Lo,
23.465,0,2.9017E-05,
23.465,0.065,2.8902E-05,
23.45,0.13,2.822E-05,
23.452,0.195,2.8407E-05,
23.444,0.26,2.7631E-05,
23.437,0.325,2.6892E-05,
23.431,0.39,2.6504E-05,
23.424,0.455,2.6655E-05,
23.416,0.52,2.6253E-05,
23.41,0.585,2.5894E-05,
23.405,0.65,2.5571E-05,
23.397,0.715,2.5054E-05,
23.388,0.78,2.4645E-05,
23.385,0.845,2.4451E-05,
23.383,0.91,2.412E-05,
23.378,0.975,2.3309E-05,
23.375,1.04,2.3144E-05,
23.369,1.105,2.2555E-05,
23.372,1.17,2.2174E-05,
23.363,1.235,2.1161E-05,
23.347,1.3,1.9898E-05,
23.345,1.365,1.9653E-05,
23.338,1.43,1.8741E-05,
23.329,1.495,1.816E-05,
23.325,1.56,1.7039E-05,
23.318,1.625,1.742E-05,
23.318,1.69,1.6386E-05,
23.309,1.755,1.5746E-05,
23.299,1.82,1.5704E-05,
23.292,1.885,1.459E-05,
23.291,1.95,1.3922E-05,
23.278,2.015,1.3513E-05,
23.276,2.08,1.2436E-05,
23.266,2.145,1.268E-05,
23.272,2.21,1.2005E-05,
23.267,2.275,1.1021E-05,
23.26,2.34,1.1114E-05,
23.249,2.405,1.0088E-05,
23.247,2.47,8.9238E-06,
23.247,2.535,9.1537E-06,
23.237,2.6,7.7029E-06,
23.233,2.665,8.1915E-06,
23.235,2.73,6.9415E-06,
23.224,2.795,6.4605E-06,
23.211,2.86,5.7066E-06,
23.209,2.925,4.9739E-06,
23.202,2.99,4.7227E-06,
23.197,3.055,4.4571E-06,
23.191,3.12,3.4372E-06,
23.178,3.185,2.712E-06,
23.176,3.25,2.4104E-06,
23.173,3.315,2.2453E-06,
23.169,3.38,1.3546E-06,
23.157,3.445,2.343E-07,
23.16,3.51,3.1323E-07,
23.162,3.575,-7.3568E-07,
23.159,3.64,-1.102E-06,
23.164,3.705,-2.3881E-06,
23.169,3.77,-3.5305E-06,
23.177,3.835,-4.0767E-06,
23.184,3.9,-6.0956E-06,
23.209,3.965,-7.2962E-06,
23.234,4.03,-7.8933E-06,
23.261,4.095,-1.0028E-05,
23.296,4.16,-1.1933E-05,
23.328,4.225,-1.429E-05,
23.367,4.29,-1.7E-05,
23.409,4.355,-1.9515E-05,
23.47,4.42,-2.2987E-05,
23.516,4.485,-2.5101E-05,
23.59,4.55,-2.9169E-05,
23.654,4.615,-3.2677E-05,
23.726,4.68,-3.5812E-05,
23.815,4.745,-4.006E-05,
23.91,4.81,-4.3691E-05,
24.005,4.875,-4.8097E-05,
24.118,4.94,-5.203E-05,
24.243,5.005,-5.6682E-05,
24.376,5.07,-6.0903E-05,
24.513,5.135,-6.5928E-05,
24.655,5.2,-7.04E-05,
24.805,5.265,-7.516E-05,
24.972,5.33,-8.0804E-05,
25.136,5.395,-8.5176E-05,
25.315,5.46,-8.9814E-05,
25.5,5.525,-9.484E-05,
25.69,5.59,-9.9887E-05,
25.892,5.655,-0.00010459,
26.096,5.72,-0.00011103,
26.309,5.785,-0.00011522,
26.526,5.85,-0.00012071,
26.749,5.915,-0.00012558,
26.981,5.98,-0.00013078,
27.226,6.045,-0.00013506,
27.463,6.11,-0.00013988,
27.723,6.175,-0.00014391,
27.978,6.24,-0.00014838,
28.23,6.305,-0.00015326,
28.505,6.37,-0.0001575,
28.774,6.435,-0.00016189,
29.048,6.5,-0.00016492,
29.321,6.565,-0.00016891,
29.613,6.63,-0.00017242,
29.893,6.695,-0.0001755,
30.189,6.76,-0.00017941,
30.476,6.825,-0.00018206,
30.775,6.89,-0.00018425,
31.073,6.955,-0.00018694,
31.371,7.02,-0.00018939,
31.684,7.085,-0.00019148,
31.992,7.15,-0.00019306,
32.295,7.215,-0.00019451,
32.61,7.28,-0.00019598,
32.92,7.345,-0.00019717,
33.236,7.41,-0.00019737,
33.548,7.475,-0.00019863,
33.86,7.54,-0.00019894,
34.175,7.605,-0.00019892,
34.506,7.67,-0.00019846,
34.831,7.735,-0.00019779,
35.137,7.8,-0.00019835,
35.449,7.865,-0.00019751,
35.781,7.93,-0.00019673,
36.09,7.995,-0.00019583,
36.409,8.06,-0.00019468,
36.731,8.125,-0.00019331,
37.047,8.19,-0.00019115,
37.372,8.255,-0.00018944,
37.695,8.32,-0.00018763,
37.998,8.385,-0.00018567,
38.327,8.45,-0.00018376,
38.646,8.515,-0.00018075,
38.968,8.58,-0.00017906,
39.285,8.645,-0.00017585,
39.604,8.71,-0.00017289,
39.922,8.775,-0.00017008,
40.24,8.84,-0.00016727,
40.559,8.905,-0.00016423,
40.875,8.97,-0.00016131,
41.192,9.035,-0.00015868,
41.512,9.1,-0.00015439,
41.838,9.165,-0.00015069,
42.159,9.23,-0.00014794,
42.48,9.295,-0.00014433,
42.804,9.36,-0.00013993,
43.116,9.425,-0.00013624,
43.445,9.49,-0.0001322,
43.762,9.555,-0.00012801,
44.08,9.62,-0.00012402,
44.411,9.685,-0.00012014,
44.729,9.75,-0.00011503,
45.042,9.815,-0.00011124,
45.372,9.88,-0.00010731,
45.703,9.945,-0.00010308,
46.034,10.01,-9.7299E-05,
46.353,10.075,-9.33E-05,
46.682,10.14,-8.9286E-05,
47.005,10.205,-8.4626E-05,
47.332,10.27,-7.8988E-05,
47.662,10.335,-7.4334E-05,
47.981,10.4,-7.0248E-05,
48.311,10.465,-6.6255E-05,
48.642,10.53,-6.1651E-05,
48.975,10.595,-5.663E-05,
49.306,10.66,-5.2112E-05,
49.628,10.725,-4.7315E-05,
49.961,10.79,-4.2552E-05,
50.297,10.855,-3.7452E-05,
50.634,10.92,-3.2114E-05,
50.966,10.985,-2.7991E-05,
51.297,11.05,-2.2294E-05,
51.632,11.115,-1.7287E-05,
51.968,11.18,-1.1956E-05,
52.305,11.245,-6.9632E-06,
52.643,11.31,-2.3651E-06,
52.977,11.375,3.3538E-06,
53.316,11.44,8.9651E-06,
53.662,11.505,1.5518E-05,
54.004,11.57,2.026E-05,
54.338,11.635,2.6123E-05,
54.683,11.7,3.1635E-05,
55.033,11.765,3.6867E-05,
55.373,11.83,4.3089E-05,
55.733,11.895,4.8049E-05,
56.067,11.96,5.578E-05,
56.421,12.025,6.1127E-05,
56.765,12.09,6.6575E-05,
57.11,12.155,7.3093E-05,
57.449,12.22,7.8361E-05,
57.802,12.285,8.4707E-05,
58.143,12.35,9.0795E-05,
58.486,12.415,9.6437E-05,
58.836,12.48,0.00010233,
59.179,12.545,0.00010941,
59.535,12.61,0.0001165,
59.885,12.675,0.00012363,
60.228,12.74,0.00012936,
60.579,12.805,0.00013609,
60.93,12.87,0.000143,
61.276,12.935,0.00015045,
61.618,13,0.0001562,
61.969,13.065,0.000164,
62.319,13.13,0.00017032,
62.657,13.195,0.00017711,
63.01,13.26,0.00018507,
63.369,13.325,0.00019172,
63.718,13.39,0.00019853,
64.064,13.455,0.00020623,
64.414,13.52,0.00021368,
64.765,13.585,0.00022085,
65.115,13.65,0.00022847,
65.459,13.715,0.00023771,
65.817,13.78,0.00024505,
66.164,13.845,0.00025156,
66.512,13.91,0.0002589,
66.854,13.975,0.00026696,
67.202,14.04,0.00027434,
67.551,14.105,0.00028324,
67.895,14.17,0.00029229,
68.256,14.235,0.00030022,
68.597,14.3,0.00030772,
68.938,14.365,0.00031611,
69.295,14.43,0.0003237,
69.641,14.495,0.00033267,
69.991,14.56,0.00034093,
70.333,14.625,0.00034829,
70.68,14.69,0.00035963,
71.028,14.755,0.00036816,
71.377,14.82,0.00037629,
71.724,14.885,0.00038479,
72.069,14.95,0.00039203,
72.414,15.015,0.00040045,
72.762,15.08,0.00040867,
73.099,15.145,0.00041677,
73.453,15.21,0.0004265,
73.799,15.275,0.00043763,
74.137,15.34,0.00044675,
74.481,15.405,0.00045476,
74.823,15.47,0.00046305,
75.171,15.535,0.00047345,
75.515,15.6,0.00048152,
75.866,15.665,0.00048996,
76.202,15.73,0.0005018,
76.54,15.795,0.00051123,
76.887,15.86,0.00051993,
77.227,15.925,0.00052809,
77.569,15.99,0.00053738,
77.915,16.055,0.0005455,
78.256,16.12,0.00055602,
78.6,16.185,0.00056427,
78.946,16.25,0.00057265,
79.28,16.315,0.00058139,
79.617,16.38,0.0005906,
79.973,16.445,0.00059999,
80.304,16.51,0.00060881,
80.643,16.575,0.00061779,
80.978,16.64,0.0006285,
81.322,16.705,0.00063784,
81.657,16.77,0.00064591,
82,16.835,0.00065573,
82.338,16.9,0.00066319,
82.677,16.965,0.00067342,
83.007,17.03,0.00068125,
83.349,17.095,0.00069181,
83.692,17.16,0.00070085,
84.027,17.225,0.00071076,
84.361,17.29,0.00071963,
84.706,17.355,0.00073065,
84.809,17.37667,0.00073392,