Folder: thermal-expansion/data/14.1mm-083019 (part 2)

File: byto000sB1r1-14.3mm-090919.csv
#EXPORTTYPE:           ,DATA ALL
#FILE:                 ,bytownBs1r1.ngb-sle
#FORMAT:               ,NETZSCH5
#FTYPE:                ,ANSI
#IDENTITY:             ,bytownite s1
#DECIMAL:              ,POINT
#SEPARATOR:            ,COMMA
#MTYPE:                ,DIL
#INSTRUMENT:           ,NETZSCH DIL 402C
#PROJECT:              ,feldspar
#DATE/TIME:            ,9/9/2019 9:42:22 AM (UTC-5)
#CORR. FILE:           ,
#TEMPCAL:              ,TCALZERO.TMX
#LABORATORY:           ,Mineral Physics
#OPERATOR:             ,PAG
#REMARK:               ,bare, norm start, for bytown and rocks , fbm B 010 or 001 rect x section. nice ends
#SAMPLE:               ,FBM-B
#SAMPLE LENGTH /mm:    ,14.265
#MATERIAL:             ,sapphire stnd
#MEASMODE:             ,Standard Expansion
#PURGE GAS 1:          ,ARGON
#FLOW RATE 1 /(ml/min):,75
#M.RANGE /µm:          ,500
#CORR. CODE:           ,010
#RANGE:                ,20.0°C/3.0(K/min)/1180.0°C/30.0(K/min)/900.0°C/
#SEGMENT:              ,S1-2/2
#SEG. 1:               ,20.0°C/3.0(K/min)/1180.0°C
#SEG. 2:               ,1180.0°C/30.0(K/min)/900.0°C

##Temp./°C,Time/min,dL/Lo,Segment
  22.54500,  0.00000, 2.2440e-005,1
  22.59000,  1.36500, 2.6994e-005,1
  22.56800,  2.73000, 2.4059e-005,1
  22.72900,  4.09500, 1.8760e-005,1
  24.91200,  5.46000,-4.3120e-006,1
  30.09500,  6.82500,-3.6283e-005,1
  36.63300,  8.19000,-4.6478e-005,1
  43.33500,  9.55500,-3.5679e-005,1
  50.21400, 10.92000,-1.8359e-005,1
  57.38900, 12.28500, 2.2623e-006,1
  64.75700, 13.65000, 2.6625e-005,1
  72.09900, 15.01500, 5.5555e-005,1
  79.37600, 16.38000, 9.0176e-005,1
  86.54900, 17.74500, 1.2602e-004,1
  93.60700, 19.11000, 1.6226e-004,1
 100.58, 20.47500, 1.9540e-004,1
 107.452, 21.84000, 2.2188e-004,1
 114.237, 23.20500, 2.3887e-004,1
 120.945, 24.57000, 2.4069e-004,1
 127.605, 25.93500, 2.2246e-004,1
 134.192, 27.30000, 1.9024e-004,1
 140.74, 28.66500, 1.4242e-004,1
 147.216, 30.03000, 5.2715e-005,1
 153.652, 31.39500,-3.9219e-005,1
 160.026, 32.76000,-1.3984e-004,1
 166.374, 34.12500,-1.7142e-004,1
 172.665, 35.49000,-1.5377e-004,1
 178.896, 36.85500,-1.2182e-004,1
 185.099, 38.22000,-8.4076e-005,1
 191.246, 39.58500,-4.5501e-005,1
 197.342, 40.95000,-3.6742e-006,1
 203.373, 42.31500, 3.9295e-005,1
 209.373, 43.68000, 8.4098e-005,1
 215.338, 45.04500, 1.2987e-004,1
 221.245, 46.41000, 1.7584e-004,1
 227.111, 47.77500, 2.2145e-004,1
 232.929, 49.14000, 2.6829e-004,1
 238.721, 50.50500, 3.1443e-004,1
 244.449, 51.87000, 3.6069e-004,1
 250.143, 53.23500, 4.0707e-004,1
 255.79, 54.60000, 4.5225e-004,1
 261.401, 55.96500, 4.9758e-004,1
 266.957, 57.33000, 5.4327e-004,1
 272.47, 58.69500, 5.8736e-004,1
 277.946, 60.06000, 6.3230e-004,1
 283.371, 61.42500, 6.7685e-004,1
 288.764, 62.79000, 7.2158e-004,1
 294.123, 64.15500, 7.6614e-004,1
 299.445, 65.52000, 8.1106e-004,1
 304.731, 66.88500, 8.5576e-004,1
 309.97, 68.25000, 9.0072e-004,1
 315.183, 69.61500, 9.4608e-004,1
 320.369, 70.98000, 9.9013e-004,1
 325.542, 72.34500, 1.0348e-003,1
 330.646, 73.71000, 1.0791e-003,1
 335.708, 75.07500, 1.1231e-003,1
 340.755, 76.44000, 1.1670e-003,1
 345.76, 77.80500, 1.2101e-003,1
 350.724, 79.17000, 1.2535e-003,1
 355.663, 80.53500, 1.2975e-003,1
 360.517, 81.90000, 1.3425e-003,1
 365.337, 83.26500, 1.3852e-003,1
 370.27, 84.63000, 1.4252e-003,1
 375.336, 85.99500, 1.4657e-003,1
 380.348, 87.36000, 1.5077e-003,1
 385.273, 88.72500, 1.5496e-003,1
 390.126, 90.09000, 1.5916e-003,1
 394.939, 91.45500, 1.6335e-003,1
 399.642, 92.82000, 1.6744e-003,1
 404.312, 94.18500, 1.7152e-003,1
 408.948, 95.55000, 1.7559e-003,1
 413.541, 96.91500, 1.7956e-003,1
 418.102, 98.28000, 1.8354e-003,1
 422.641, 99.64500, 1.8743e-003,1
 427.155,101.01, 1.9127e-003,1
 431.651,102.375, 1.9508e-003,1
 436.125,103.74, 1.9895e-003,1
 440.594,105.105, 2.0274e-003,1
 445.035,106.47, 2.0657e-003,1
 449.454,107.835, 2.1034e-003,1
 453.848,109.2, 2.1411e-003,1
 458.234,110.565, 2.1789e-003,1
 462.594,111.93, 2.2167e-003,1
 466.937,113.295, 2.2534e-003,1
 471.266,114.66, 2.2903e-003,1
 475.571,116.025, 2.3273e-003,1
 479.849,117.39, 2.3642e-003,1
 484.119,118.755, 2.4003e-003,1
 488.344,120.12, 2.4361e-003,1
 492.578,121.485, 2.4724e-003,1
 496.804,122.85, 2.5083e-003,1
 501.013,124.215, 2.5439e-003,1
 505.19,125.58, 2.5795e-003,1
 509.341,126.945, 2.6143e-003,1
 513.489,128.31, 2.6493e-003,1
 517.591,129.675, 2.6878e-003,1
 521.613,131.04, 2.7227e-003,1
 525.754,132.405, 2.7559e-003,1
 530.034,133.77, 2.7899e-003,1
 534.262,135.135, 2.8255e-003,1
 538.415,136.5, 2.8606e-003,1
 542.552,137.865, 2.8954e-003,1
 546.619,139.23, 2.9302e-003,1
 550.653,140.595, 2.9644e-003,1
 554.671,141.96, 2.9989e-003,1
 558.663,143.325, 3.0324e-003,1
 562.633,144.69, 3.0662e-003,1
 566.574,146.055, 3.1004e-003,1
 570.511,147.42, 3.1343e-003,1
 574.458,148.785, 3.1701e-003,1
 578.372,150.15, 3.2037e-003,1
 582.302,151.515, 3.2377e-003,1
 586.213,152.88, 3.2713e-003,1
 590.094,154.245, 3.3047e-003,1
 593.984,155.61, 3.3379e-003,1
 597.859,156.975, 3.3712e-003,1
 601.722,158.34, 3.4046e-003,1
 605.572,159.705, 3.4374e-003,1
 609.4,161.07, 3.4701e-003,1
 613.24,162.435, 3.5031e-003,1
 617.076,163.8, 3.5366e-003,1
 620.892,165.165, 3.5703e-003,1
 624.646,166.53, 3.6048e-003,1
 628.345,167.895, 3.6386e-003,1
 632.184,169.26, 3.6708e-003,1
 636.126,170.625, 3.7038e-003,1
 640.005,171.99, 3.7367e-003,1
 643.845,173.355, 3.7698e-003,1
 647.665,174.72, 3.8021e-003,1
 651.455,176.085, 3.8346e-003,1
 655.207,177.45, 3.8671e-003,1
 658.934,178.815, 3.8990e-003,1
 662.668,180.18, 3.9307e-003,1
 666.372,181.545, 3.9632e-003,1
 670.065,182.91, 3.9946e-003,1
 673.738,184.275, 4.0272e-003,1
 677.331,185.64, 4.0604e-003,1
 680.902,187.005, 4.0910e-003,1
 684.604,188.37, 4.1215e-003,1
 688.361,189.735, 4.1521e-003,1
 692.061,191.1, 4.1827e-003,1
 695.732,192.465, 4.2136e-003,1
 699.365,193.83, 4.2442e-003,1
 702.96,195.195, 4.2752e-003,1
 706.542,196.56, 4.3052e-003,1
 710.122,197.925, 4.3354e-003,1
 713.709,199.29, 4.3659e-003,1
 717.265,200.655, 4.3967e-003,1
 720.831,202.02, 4.4265e-003,1
 724.392,203.385, 4.4568e-003,1
 727.958,204.75, 4.4870e-003,1
 731.527,206.115, 4.5175e-003,1
 735.079,207.48, 4.5478e-003,1
 738.636,208.845, 4.5782e-003,1
 742.167,210.21, 4.6089e-003,1
 745.703,211.575, 4.6396e-003,1
 749.211,212.94, 4.6714e-003,1
 752.662,214.305, 4.7026e-003,1
 756.121,215.67, 4.7327e-003,1
 759.703,217.035, 4.7622e-003,1
 763.288,218.4, 4.7928e-003,1
 766.853,219.765, 4.8230e-003,1
 770.412,221.13, 4.8534e-003,1
 773.934,222.495, 4.8836e-003,1
 777.356,223.86, 4.9138e-003,1
 780.757,225.225, 4.9432e-003,1
 784.121,226.59, 4.9731e-003,1
 787.421,227.955, 5.0018e-003,1
 790.702,229.32, 5.0299e-003,1
 794.037,230.685, 5.0583e-003,1
 797.283,232.05, 5.0868e-003,1
 800.481,233.415, 5.1140e-003,1
 803.757,234.78, 5.1411e-003,1
 807.087,236.145, 5.1691e-003,1
 810.487,237.51, 5.1971e-003,1
 813.894,238.875, 5.2269e-003,1
 817.21,240.24, 5.2558e-003,1
 820.659,241.605, 5.2838e-003,1
 824.215,242.97, 5.3123e-003,1
 827.804,244.335, 5.3421e-003,1
 831.397,245.7, 5.3717e-003,1
 835.002,247.065, 5.4013e-003,1
 838.589,248.43, 5.4313e-003,1
 842.202,249.795, 5.4628e-003,1
 845.804,251.16, 5.4926e-003,1
 849.409,252.525, 5.5240e-003,1
 853.047,253.89, 5.5553e-003,1
 856.661,255.255, 5.5867e-003,1
 860.287,256.62, 5.6189e-003,1
 863.894,257.985, 5.6502e-003,1
 867.511,259.35, 5.6824e-003,1
 871.135,260.715, 5.7154e-003,1
 874.602,262.08, 5.7477e-003,1
 877.704,263.445, 5.7778e-003,1
 880.862,264.81, 5.8064e-003,1
 884.431,266.175, 5.8360e-003,1
 888.247,267.54, 5.8684e-003,1
 891.978,268.905, 5.9013e-003,1
 895.609,270.27, 5.9337e-003,1
 899.174,271.635, 5.9638e-003,1
 902.741,273, 5.9950e-003,1
 906.273,274.365, 6.0261e-003,1
 909.794,275.73, 6.0570e-003,1
 913.215,277.095, 6.0878e-003,1
 916.474,278.46, 6.1176e-003,1
 919.673,279.825, 6.1463e-003,1
 922.637,281.19, 6.1759e-003,1
 925.185,282.555, 6.1992e-003,1
 928.527,283.92, 6.2266e-003,1
 931.881,285.285, 6.2573e-003,1
 935.252,286.65, 6.2852e-003,1
 938.855,288.015, 6.3149e-003,1
 942.437,289.38, 6.3441e-003,1
 945.996,290.745, 6.3741e-003,1
 949.569,292.11, 6.4037e-003,1
 953.178,293.475, 6.4339e-003,1
 956.783,294.84, 6.4641e-003,1
 960.388,296.205, 6.4948e-003,1
 964.005,297.57, 6.5254e-003,1
 967.647,298.935, 6.5578e-003,1
 971.265,300.3, 6.5903e-003,1
 974.751,301.665, 6.6209e-003,1
 978.303,303.03, 6.6500e-003,1
 982.06,304.395, 6.6818e-003,1
 985.825,305.76, 6.7120e-003,1
 989.538,307.125, 6.7443e-003,1
 993.239,308.49, 6.7747e-003,1
 996.964,309.855, 6.8056e-003,1
1000.69,311.22, 6.8358e-003,1
1004.37,312.585, 6.8661e-003,1
1008.03,313.95, 6.8962e-003,1
1011.74,315.315, 6.9262e-003,1
1015.35,316.68, 6.9564e-003,1
1018.73,318.045, 6.9862e-003,1
1022.11,319.41, 7.0136e-003,1
1025.7,320.775, 7.0404e-003,1
1029.48,322.14, 7.0699e-003,1
1033.25,323.505, 7.0988e-003,1
1037.11,324.87, 7.1289e-003,1
1040.74,326.235, 7.1553e-003,1
1044.37,327.6, 7.1834e-003,1
1048.1,328.965, 7.2102e-003,1
1052.18,330.33, 7.2388e-003,1
1056.31,331.695, 7.2691e-003,1
1060.28,333.06, 7.2991e-003,1
1064.04,334.425, 7.3282e-003,1
1067.56,335.79, 7.3561e-003,1
1071.22,337.155, 7.3805e-003,1
1074.99,338.52, 7.4081e-003,1
1078.64,339.885, 7.4353e-003,1
1082.2,341.25, 7.4605e-003,1
1085.46,342.615, 7.4836e-003,1
1089.04,343.98, 7.5038e-003,1
1093.08,345.345, 7.5317e-003,1
1097.09,346.71, 7.5577e-003,1
1100.8,348.075, 7.5832e-003,1
1104.43,349.44, 7.6082e-003,1
1108.2,350.805, 7.6339e-003,1
1111.92,352.17, 7.6594e-003,1
1115.58,353.535, 7.6853e-003,1
1119.24,354.9, 7.7097e-003,1
1123.39,356.265, 7.7366e-003,1
1126.96,357.63, 7.7632e-003,1
1130.76,358.995, 7.7882e-003,1
1134.52,360.36, 7.8122e-003,1
1138.33,361.725, 7.8418e-003,1
1141.74,363.09, 7.8656e-003,1
1145.94,364.455, 7.8940e-003,1
1149.42,365.82, 7.9188e-003,1
1153.34,367.185, 7.9450e-003,1
1157.11,368.55, 7.9804e-003,1
1161.13,369.915, 8.0064e-003,1
1165.62,371.28, 8.0369e-003,1
1171.05,372.645, 8.0814e-003,1
1174.85,374.01, 8.1150e-003,1
1178.85,375.375, 8.1498e-003,1
1182.44,376.74, 8.1835e-003,1
1185.97,378.105, 8.2169e-003,1
1189.47,379.47, 8.2493e-003,1
1193.01,380.835, 8.2824e-003,1
1196.42,382.2, 8.3149e-003,1
1199.92,383.565, 8.3480e-003,1
1203.71,384.93, 8.3832e-003,1
1207.6,386.295, 8.4205e-003,1
1208.31,387.112, 8.4560e-003,2
1197.48,387.742, 8.4518e-003,2
1180.44,388.372, 8.3525e-003,2
1163.07,389.002, 8.2297e-003,2
1146.14,389.632, 8.1137e-003,2
1128.96,390.262, 8.0001e-003,2
1111.36,390.892, 7.8861e-003,2
1093.47,391.522, 7.7700e-003,2
1075.45,392.152, 7.6522e-003,2
1057.4,392.782, 7.5304e-003,2
1039.43,393.412, 7.4070e-003,2
1021.56,394.042, 7.2829e-003,2
1003.77,394.672, 7.1570e-003,2
 986.052,395.302, 7.0291e-003,2
 968.442,395.932, 6.9005e-003,2
 967.061,395.982, 6.8901e-003,2

File: byto000sCr1-14.6mm-091119.csv
#EXPORTTYPE:           ,DATA ALL
#FILE:                 ,bytownCrun1.ngb-sle
#FORMAT:               ,NETZSCH5
#FTYPE:                ,ANSI
#IDENTITY:             ,bytwonite C
#DECIMAL:              ,POINT
#SEPARATOR:            ,COMMA
#MTYPE:                ,DIL
#INSTRUMENT:           ,NETZSCH DIL 402C
#PROJECT:              ,feldspar
#DATE/TIME:            ,9/11/2019 9:46:40 AM (UTC-5)
#CORR. FILE:           ,
#TEMPCAL:              ,TCALZERO.TMX
#LABORATORY:           ,Mineral Physics
#OPERATOR:             ,PAG
#REMARK:               ,bare, norm start, for bytown and rocks bytownite fat rect x-section
#SAMPLE:               ,fmb-C
#SAMPLE LENGTH /mm:    ,14.583
#MATERIAL:             ,sapphire stnd
#MEASMODE:             ,Standard Expansion
#PURGE GAS 1:          ,ARGON
#FLOW RATE 1 /(ml/min):,75
#M.RANGE /µm:          ,500
#CORR. CODE:           ,010
#RANGE:                ,20.0°C/3.0(K/min)/1206.0°C/25.0(K/min)/900.0°C/
#SEGMENT:              ,S1-2/2
#SEG. 1:               ,20.0°C/3.0(K/min)/1206.0°C
#SEG. 2:               ,1206.0°C/25.0(K/min)/900.0°C

##Temp./°C,Time/min,dL/Lo,Segment
  21.53000,  0.00000, 1.5187e-005,1
  21.57700,  1.40833, 1.5454e-005,1
  21.59100,  2.81667, 1.1937e-005,1
  22.13000,  4.22500, 1.8933e-006,1
  25.42700,  5.63333,-2.4033e-005,1
  31.42100,  7.04167,-3.5965e-005,1
  38.28500,  8.45000,-1.9453e-005,1
  45.23100,  9.85833, 1.4257e-005,1
  52.48300, 11.26667, 6.0794e-005,1
  59.98400, 12.67500, 1.1608e-004,1
  67.55000, 14.08333, 1.7869e-004,1
  75.04900, 15.49167, 2.4713e-004,1
  82.51000, 16.90000, 3.1875e-004,1
  89.82900, 18.30833, 3.9158e-004,1
  97.04900, 19.71667, 4.6561e-004,1
 104.116, 21.12500, 5.3952e-004,1
 111.141, 22.53333, 6.1365e-004,1
 118.08, 23.94167, 6.8712e-004,1
 124.957, 25.35000, 7.6026e-004,1
 131.783, 26.75833, 8.3352e-004,1
 138.456, 28.16667, 9.0594e-004,1
 145.136, 29.57500, 9.7815e-004,1
 151.762, 30.98333, 1.0500e-003,1
 158.322, 32.39167, 1.1214e-003,1
 164.841, 33.80000, 1.1928e-003,1
 171.293, 35.20833, 1.2631e-003,1
 177.691, 36.61667, 1.3337e-003,1
 184.051, 38.02500, 1.4036e-003,1
 190.37, 39.43333, 1.4734e-003,1
 196.646, 40.84167, 1.5428e-003,1
 202.862, 42.25000, 1.6113e-003,1
 209.035, 43.65833, 1.6797e-003,1
 215.157, 45.06667, 1.7477e-003,1
 221.226, 46.47500, 1.8146e-003,1
 227.251, 47.88333, 1.8813e-003,1
 233.236, 49.29167, 1.9482e-003,1
 239.167, 50.70000, 2.0141e-003,1
 245.04, 52.10833, 2.0799e-003,1
 250.887, 53.51667, 2.1436e-003,1
 256.692, 54.92500, 2.2083e-003,1
 262.438, 56.33333, 2.2720e-003,1
 268.142, 57.74167, 2.3355e-003,1
 273.798, 59.15000, 2.3980e-003,1
 279.424, 60.55833, 2.4609e-003,1
 284.983, 61.96667, 2.5226e-003,1
 290.526, 63.37500, 2.5845e-003,1
 296, 64.78333, 2.6454e-003,1
 301.448, 66.19167, 2.7061e-003,1
 306.867, 67.60000, 2.7663e-003,1
 312.243, 69.00833, 2.8260e-003,1
 317.579, 70.41667, 2.8850e-003,1
 322.875, 71.82500, 2.9442e-003,1
 328.119, 73.23333, 3.0047e-003,1
 333.284, 74.64167, 3.0647e-003,1
 338.477, 76.05000, 3.1213e-003,1
 343.825, 77.45833, 3.1763e-003,1
 349.212, 78.86667, 3.2340e-003,1
 354.495, 80.27500, 3.2917e-003,1
 359.69, 81.68333, 3.3489e-003,1
 364.812, 83.09167, 3.4051e-003,1
 369.85, 84.50000, 3.4612e-003,1
 374.831, 85.90833, 3.5164e-003,1
 379.772, 87.31667, 3.5713e-003,1
 384.664, 88.72500, 3.6257e-003,1
 389.532, 90.13333, 3.6794e-003,1
 394.367, 91.54167, 3.7328e-003,1
 399.184, 92.95000, 3.7861e-003,1
 403.977, 94.35833, 3.8389e-003,1
 408.734, 95.76667, 3.8910e-003,1
 413.472, 97.17500, 3.9430e-003,1
 418.178, 98.58333, 3.9941e-003,1
 422.876, 99.99167, 4.0454e-003,1
 427.54,101.4, 4.0970e-003,1
 432.183,102.808, 4.1472e-003,1
 436.819,104.217, 4.1980e-003,1
 441.42,105.625, 4.2485e-003,1
 445.993,107.033, 4.2989e-003,1
 450.546,108.442, 4.3491e-003,1
 455.082,109.85, 4.3985e-003,1
 459.587,111.258, 4.4475e-003,1
 464.069,112.667, 4.4973e-003,1
 468.559,114.075, 4.5459e-003,1
 473.015,115.483, 4.5949e-003,1
 477.434,116.892, 4.6433e-003,1
 481.853,118.3, 4.6919e-003,1
 486.252,119.708, 4.7400e-003,1
 490.616,121.117, 4.7900e-003,1
 494.888,122.525, 4.8396e-003,1
 499.236,123.933, 4.8863e-003,1
 503.722,125.342, 4.9329e-003,1
 508.211,126.75, 4.9813e-003,1
 512.619,128.158, 5.0289e-003,1
 516.97,129.567, 5.0767e-003,1
 521.284,130.975, 5.1242e-003,1
 525.544,132.383, 5.1713e-003,1
 529.756,133.792, 5.2180e-003,1
 533.98,135.2, 5.2647e-003,1
 538.168,136.608, 5.3115e-003,1
 542.317,138.017, 5.3576e-003,1
 546.494,139.425, 5.4040e-003,1
 550.634,140.833, 5.4505e-003,1
 554.758,142.242, 5.4961e-003,1
 558.898,143.65, 5.5420e-003,1
 562.991,145.058, 5.5875e-003,1
 567.1,146.467, 5.6358e-003,1
 571.189,147.875, 5.6811e-003,1
 575.256,149.283, 5.7264e-003,1
 579.321,150.692, 5.7753e-003,1
 583.384,152.1, 5.8228e-003,1
 587.416,153.508, 5.8681e-003,1
 591.441,154.917, 5.9134e-003,1
 595.475,156.325, 5.9586e-003,1
 599.453,157.733, 6.0067e-003,1
 603.337,159.142, 6.0537e-003,1
 607.277,160.55, 6.0986e-003,1
 611.375,161.958, 6.1426e-003,1
 615.466,163.367, 6.1890e-003,1
 619.526,164.775, 6.2344e-003,1
 623.547,166.183, 6.2813e-003,1
 627.534,167.592, 6.3266e-003,1
 631.469,169, 6.3723e-003,1
 635.412,170.408, 6.4171e-003,1
 639.313,171.817, 6.4627e-003,1
 643.197,173.225, 6.5087e-003,1
 647.087,174.633, 6.5543e-003,1
 650.939,176.042, 6.5983e-003,1
 654.795,177.45, 6.6431e-003,1
 658.63,178.858, 6.6866e-003,1
 662.488,180.267, 6.7327e-003,1
 666.315,181.675, 6.7778e-003,1
 670.113,183.083, 6.8212e-003,1
 673.847,184.492, 6.8673e-003,1
 677.547,185.9, 6.9104e-003,1
 681.34,187.308, 6.9530e-003,1
 685.231,188.717, 6.9956e-003,1
 689.077,190.125, 7.0379e-003,1
 692.884,191.533, 7.0818e-003,1
 696.669,192.942, 7.1238e-003,1
 700.413,194.35, 7.1666e-003,1
 704.165,195.758, 7.2080e-003,1
 707.857,197.167, 7.2506e-003,1
 711.586,198.575, 7.2915e-003,1
 715.287,199.983, 7.3325e-003,1
 718.98,201.392, 7.3734e-003,1
 722.673,202.8, 7.4165e-003,1
 726.357,204.208, 7.4575e-003,1
 730.025,205.617, 7.4983e-003,1
 733.693,207.025, 7.5391e-003,1
 737.361,208.433, 7.5825e-003,1
 741.043,209.842, 7.6230e-003,1
 744.666,211.25, 7.6651e-003,1
 748.223,212.658, 7.7072e-003,1
 751.857,214.067, 7.7505e-003,1
 755.609,215.475, 7.7940e-003,1
 759.339,216.883, 7.8354e-003,1
 763.071,218.292, 7.8768e-003,1
 766.767,219.7, 7.9183e-003,1
 770.448,221.108, 7.9590e-003,1
 774.094,222.517, 8.0026e-003,1
 777.757,223.925, 8.0432e-003,1
 781.393,225.333, 8.0869e-003,1
 785.014,226.742, 8.1288e-003,1
 788.522,228.15, 8.1697e-003,1
 791.916,229.558, 8.2123e-003,1
 795.354,230.967, 8.2508e-003,1
 798.814,232.375, 8.2900e-003,1
 802.307,233.783, 8.3298e-003,1
 805.779,235.192, 8.3705e-003,1
 809.119,236.6, 8.4113e-003,1
 812.472,238.008, 8.4499e-003,1
 815.977,239.417, 8.4922e-003,1
 819.514,240.825, 8.5320e-003,1
 823.093,242.233, 8.5723e-003,1
 826.687,243.642, 8.6125e-003,1
 830.304,245.05, 8.6533e-003,1
 833.947,246.458, 8.6942e-003,1
 837.585,247.867, 8.7350e-003,1
 841.219,249.275, 8.7756e-003,1
 844.865,250.683, 8.8171e-003,1
 848.549,252.092, 8.8589e-003,1
 852.197,253.5, 8.9004e-003,1
 855.878,254.908, 8.9492e-003,1
 859.558,256.317, 8.9921e-003,1
 863.239,257.725, 9.0349e-003,1
 866.837,259.133, 9.0779e-003,1
 870.387,260.542, 9.1201e-003,1
 874.053,261.95, 9.1619e-003,1
 877.786,263.358, 9.2047e-003,1
 881.532,264.767, 9.2567e-003,1
 885.152,266.175, 9.3031e-003,1
 888.568,267.583, 9.3451e-003,1
 892.042,268.992, 9.3847e-003,1
 895.68,270.4, 9.4270e-003,1
 899.258,271.808, 9.4692e-003,1
 902.733,273.217, 9.5093e-003,1
 906.308,274.625, 9.5507e-003,1
 909.844,276.033, 9.5923e-003,1
 913.349,277.442, 9.6334e-003,1
 916.773,278.85, 9.6755e-003,1
 920.03,280.258, 9.7170e-003,1
 922.992,281.667, 9.7604e-003,1
 925.518,283.075, 9.7922e-003,1
 929.198,284.483, 9.8277e-003,1
 932.894,285.892, 9.8728e-003,1
 936.439,287.3, 9.9185e-003,1
 940.165,288.708, 9.9614e-003,1
 943.787,290.117, 1.0004e-002,1
 947.438,291.525, 1.0051e-002,1
 951.103,292.933, 1.0096e-002,1
 954.742,294.342, 1.0142e-002,1
 958.448,295.75, 1.0186e-002,1
 962.219,297.158, 1.0232e-002,1
 965.939,298.567, 1.0282e-002,1
 969.548,299.975, 1.0328e-002,1
 973.19,301.383, 1.0376e-002,1
 977.056,302.792, 1.0426e-002,1
 981.103,304.2, 1.0476e-002,1
 984.728,305.608, 1.0524e-002,1
 988.539,307.017, 1.0572e-002,1
 992.318,308.425, 1.0623e-002,1
 996.136,309.833, 1.0672e-002,1
 999.96,311.242, 1.0727e-002,1
1003.75,312.65, 1.0777e-002,1
1007.55,314.058, 1.0826e-002,1
1011.29,315.467, 1.0879e-002,1
1014.86,316.875, 1.0930e-002,1
1018.56,318.283, 1.0984e-002,1
1022.5,319.692, 1.1038e-002,1
1026.33,321.1, 1.1092e-002,1
1030.15,322.508, 1.1145e-002,1
1034.04,323.917, 1.1200e-002,1
1037.8,325.325, 1.1254e-002,1
1041.66,326.733, 1.1308e-002,1
1045.54,328.142, 1.1365e-002,1
1049.37,329.55, 1.1420e-002,1
1053.29,330.958, 1.1479e-002,1
1057.26,332.367, 1.1537e-002,1
1061.15,333.775, 1.1598e-002,1
1064.92,335.183, 1.1656e-002,1
1068.81,336.592, 1.1716e-002,1
1072.75,338, 1.1776e-002,1
1076.82,339.408, 1.1837e-002,1
1080.63,340.817, 1.1896e-002,1
1084.58,342.225, 1.1956e-002,1
1088.33,343.633, 1.2018e-002,1
1092.33,345.042, 1.2079e-002,1
1096.17,346.45, 1.2142e-002,1
1100.1,347.858, 1.2205e-002,1
1103.97,349.267, 1.2268e-002,1
1107.78,350.675, 1.2332e-002,1
1111.59,352.083, 1.2393e-002,1
1115.72,353.492, 1.2457e-002,1
1119.67,354.9, 1.2522e-002,1
1123.55,356.308, 1.2585e-002,1
1127.53,357.717, 1.2649e-002,1
1131.48,359.125, 1.2714e-002,1
1135.29,360.533, 1.2778e-002,1
1139.18,361.942, 1.2841e-002,1
1143.07,363.35, 1.2906e-002,1
1147,364.758, 1.2969e-002,1
1151.25,366.167, 1.3036e-002,1
1155.79,367.575, 1.3107e-002,1
1160.15,368.983, 1.3175e-002,1
1163.98,370.392, 1.3240e-002,1
1167.67,371.8, 1.3299e-002,1
1171.05,373.208, 1.3356e-002,1
1174.52,374.617, 1.3408e-002,1
1178.35,376.025, 1.3468e-002,1
1181.96,377.433, 1.3523e-002,1
1185.79,378.842, 1.3578e-002,1
1190,380.25, 1.3638e-002,1
1194.44,381.658, 1.3701e-002,1
1198.39,383.067, 1.3762e-002,1
1201.96,384.475, 1.3812e-002,1
1206.17,385.883, 1.3871e-002,1
1210.12,387.292, 1.3927e-002,1
1214.02,388.7, 1.3983e-002,1
1218.04,390.108, 1.4043e-002,1
1221.79,391.517, 1.4097e-002,1
1225.93,392.925, 1.4156e-002,1
1230.14,394.333, 1.4219e-002,1
1233.3,395.52, 1.4269e-002,2
1228.25,396.17, 1.4290e-002,2
1214.43,396.82, 1.4178e-002,2
1199.1,397.47, 1.4008e-002,2
1184.44,398.12, 1.3834e-002,2
1170.41,398.77, 1.3669e-002,2
1155.75,399.42, 1.3504e-002,2
1140.53,400.07, 1.3331e-002,2
1125.16,400.72, 1.3152e-002,2
1109.81,401.37, 1.2974e-002,2
1094.44,402.02, 1.2794e-002,2
1078.98,402.67, 1.2615e-002,2
1063.49,403.32, 1.2436e-002,2
1048.01,403.97, 1.2257e-002,2
1032.57,404.62, 1.2077e-002,2
1017.23,405.27, 1.1899e-002,2
1002,405.92, 1.1724e-002,2
 986.858,406.57, 1.1549e-002,2
 971.805,407.22, 1.1376e-002,2
 963.515,407.58, 1.1280e-002,2