Folder: thermal-expansion/data/14.1mm-083019 (part 4)

File: moon000s2r1-13.6mm-091319.csv
#EXPORTTYPE:           ,DATA ALL
#FILE:                 ,moonstoneS2r1.ngb-sle
#FORMAT:               ,NETZSCH5
#FTYPE:                ,ANSI
#IDENTITY:             ,moonstone 2
#DECIMAL:              ,POINT
#SEPARATOR:            ,COMMA
#MTYPE:                ,DIL
#INSTRUMENT:           ,NETZSCH DIL 402C
#PROJECT:              ,feldspar
#DATE/TIME:            ,9/13/2019 9:47:34 AM (UTC-5)
#CORR. FILE:           ,
#TEMPCAL:              ,TCALZERO.TMX
#LABORATORY:           ,Mineral Physics
#OPERATOR:             ,PAG
#REMARK:               ,bare, norm start, for bytown and rocks moonstone Or-Ab solid soln box 1 prob 100* rectangle with notch,pink
#SAMPLE:               ,fmu-box2
#SAMPLE LENGTH /mm:    ,13.568
#MATERIAL:             ,sapphire stnd
#MEASMODE:             ,Standard Expansion
#PURGE GAS 1:          ,ARGON
#FLOW RATE 1 /(ml/min):,75
#M.RANGE /µm:          ,500
#CORR. CODE:           ,010
#RANGE:                ,20.0°C/3.0(K/min)/850.0°C
#SEGMENT:              ,S1/1
#SEG. 1:               ,20.0°C/3.0(K/min)/850.0°C

##Temp./°C,Time/min,dL/Lo
 21.03600,  0.00000, 1.1659e-005
 21.03600,  0.88833, 1.7057e-005
 21.03800,  1.77667, 1.8251e-005
 21.04900,  2.66500,-2.2522e-006
 21.21200,  3.55333,-6.7171e-006
 22.30400,  4.44167,-2.1948e-005
 24.79600,  5.33000,-4.6421e-005
 28.40400,  6.21833,-7.0143e-005
 32.60500,  7.10667,-8.3560e-005
 36.97200,  7.99500,-8.6260e-005
 41.34400,  8.88333,-8.2652e-005
 45.77200,  9.77167,-7.5034e-005
 50.30400, 10.66000,-6.4480e-005
 54.95000, 11.54833,-5.1277e-005
 59.70800, 12.43667,-3.3585e-005
 64.44600, 13.32500,-1.2225e-005
 69.20400, 14.21333, 1.0731e-005
 73.90700, 15.10167, 3.6465e-005
 78.59100, 15.99000, 6.4358e-005
 83.25600, 16.87833, 9.3257e-005
 87.85000, 17.76667, 1.2322e-004
 92.39800, 18.65500, 1.5264e-004
 96.89700, 19.54333, 1.8320e-004
101.35, 20.43167, 2.1466e-004
105.776, 21.32000, 2.4602e-004
110.163, 22.20833, 2.7713e-004
114.541, 23.09667, 3.0819e-004
118.861, 23.98500, 3.3937e-004
123.168, 24.87333, 3.7077e-004
127.462, 25.76167, 4.0144e-004
131.711, 26.65000, 4.3278e-004
135.946, 27.53833, 4.6396e-004
140.152, 28.42667, 4.9496e-004
144.345, 29.31500, 5.2582e-004
148.51, 30.20333, 5.5740e-004
152.666, 31.09167, 5.8860e-004
156.787, 31.98000, 6.1849e-004
160.894, 32.86833, 6.4977e-004
164.984, 33.75667, 6.7880e-004
169.049, 34.64500, 7.0929e-004
173.1, 35.53333, 7.3913e-004
177.12, 36.42167, 7.6973e-004
181.121, 37.31000, 7.9961e-004
185.099, 38.19833, 8.2973e-004
189.058, 39.08667, 8.6066e-004
193.016, 39.97500, 8.8968e-004
196.939, 40.86333, 9.1859e-004
200.874, 41.75167, 9.4833e-004
204.76, 42.64000, 9.7459e-004
208.63, 43.52833, 1.0039e-003
212.494, 44.41667, 1.0342e-003
216.333, 45.30500, 1.0645e-003
220.155, 46.19333, 1.0939e-003
223.944, 47.08167, 1.1235e-003
227.724, 47.97000, 1.1529e-003
231.494, 48.85833, 1.1820e-003
235.249, 49.74667, 1.2115e-003
238.98, 50.63500, 1.2404e-003
242.683, 51.52333, 1.2692e-003
246.384, 52.41167, 1.2983e-003
250.054, 53.30000, 1.3274e-003
253.721, 54.18833, 1.3554e-003
257.343, 55.07667, 1.3835e-003
260.962, 55.96500, 1.4120e-003
264.557, 56.85333, 1.4396e-003
268.149, 57.74167, 1.4631e-003
271.706, 58.63000, 1.4910e-003
275.249, 59.51833, 1.5192e-003
278.772, 60.40667, 1.5473e-003
282.285, 61.29500, 1.5753e-003
285.783, 62.18333, 1.6027e-003
289.281, 63.07167, 1.6309e-003
292.753, 63.96000, 1.6581e-003
296.19, 64.84833, 1.6859e-003
299.617, 65.73667, 1.7129e-003
303.029, 66.62500, 1.7391e-003
306.433, 67.51333, 1.7666e-003
309.843, 68.40167, 1.7934e-003
313.22, 69.29000, 1.8203e-003
316.573, 70.17833, 1.8468e-003
319.925, 71.06667, 1.8669e-003
323.246, 71.95500, 1.8930e-003
326.563, 72.84333, 1.9198e-003
329.846, 73.73167, 1.9474e-003
333.106, 74.62000, 1.9746e-003
336.334, 75.50833, 2.0008e-003
339.57, 76.39667, 2.0260e-003
342.877, 77.28500, 2.0497e-003
346.254, 78.17333, 2.0744e-003
349.638, 79.06167, 2.0995e-003
353.002, 79.95000, 2.1241e-003
356.314, 80.83833, 2.1490e-003
359.576, 81.72667, 2.1743e-003
362.82, 82.61500, 2.1993e-003
366.039, 83.50333, 2.2248e-003
369.22, 84.39167, 2.2501e-003
372.374, 85.28000, 2.2740e-003
375.517, 86.16833, 2.2794e-003
378.64, 87.05667, 2.2905e-003
381.73, 87.94500, 2.3135e-003
384.818, 88.83333, 2.3388e-003
387.886, 89.72167, 2.3634e-003
390.947, 90.61000, 2.3862e-003
393.992, 91.49833, 2.4101e-003
397.017, 92.38667, 2.4332e-003
400.037, 93.27500, 2.4540e-003
403.049, 94.16333, 2.4745e-003
406.055, 95.05167, 2.4947e-003
409.046, 95.94000, 2.5143e-003
412.028, 96.82833, 2.5283e-003
415.002, 97.71667, 2.5467e-003
417.963, 98.60500, 2.5707e-003
420.932, 99.49333, 2.5950e-003
423.879,100.382, 2.6176e-003
426.815,101.27, 2.6400e-003
429.748,102.158, 2.6614e-003
432.682,103.047, 2.6831e-003
435.6,103.935, 2.7055e-003
438.502,104.823, 2.7287e-003
441.406,105.712, 2.7510e-003
444.289,106.6, 2.7740e-003
447.174,107.488, 2.7962e-003
450.048,108.377, 2.8169e-003
452.91,109.265, 2.8380e-003
455.766,110.153, 2.8569e-003
458.609,111.042, 2.8775e-003
461.44,111.93, 2.8980e-003
464.277,112.818, 2.9143e-003
467.095,113.707, 2.9338e-003
469.897,114.595, 2.9554e-003
472.717,115.483, 2.9777e-003
475.501,116.372, 2.9983e-003
478.29,117.26, 3.0198e-003
481.086,118.148, 3.0416e-003
483.853,119.037, 3.0649e-003
486.598,119.925, 3.0881e-003
489.297,120.813, 3.1112e-003
491.997,121.702, 3.1327e-003
494.748,122.59, 3.1533e-003
497.586,123.478, 3.1746e-003
500.454,124.367, 3.1932e-003
503.289,125.255, 3.2164e-003
506.09,126.143, 3.2390e-003
508.879,127.032, 3.2609e-003
511.638,127.92, 3.2823e-003
514.369,128.808, 3.3037e-003
517.089,129.697, 3.3252e-003
519.792,130.585, 3.3465e-003
522.479,131.473, 3.3673e-003
525.149,132.362, 3.3883e-003
527.818,133.25, 3.4096e-003
530.485,134.138, 3.4312e-003
533.127,135.027, 3.4518e-003
535.791,135.915, 3.4735e-003
538.429,136.803, 3.4947e-003
541.06,137.692, 3.5156e-003
543.678,138.58, 3.5365e-003
546.311,139.468, 3.5576e-003
548.936,140.357, 3.5783e-003
551.555,141.245, 3.5996e-003
554.158,142.133, 3.6168e-003
556.772,143.022, 3.6386e-003
559.373,143.91, 3.6568e-003
561.972,144.798, 3.6769e-003
564.567,145.687, 3.6965e-003
567.143,146.575, 3.7164e-003
569.704,147.463, 3.7379e-003
572.222,148.352, 3.7574e-003
574.738,149.24, 3.7769e-003
577.287,150.128, 3.7962e-003
579.92,151.017, 3.8070e-003
582.604,151.905, 3.8245e-003
585.274,152.793, 3.8431e-003
587.91,153.682, 3.8615e-003
590.524,154.57, 3.8809e-003
593.115,155.458, 3.9008e-003
595.702,156.347, 3.9217e-003
598.261,157.235, 3.9425e-003
600.804,158.123, 3.9626e-003
603.341,159.012, 3.9827e-003
605.874,159.9, 4.0027e-003
608.394,160.788, 4.0230e-003
610.897,161.677, 4.0425e-003
613.404,162.565, 4.0637e-003
615.894,163.453, 4.0839e-003
618.374,164.342, 4.1050e-003
620.862,165.23, 4.1251e-003
623.334,166.118, 4.1458e-003
625.821,167.007, 4.1666e-003
628.311,167.895, 4.1874e-003
630.736,168.783, 4.2071e-003
633.195,169.672, 4.2281e-003
635.666,170.56, 4.2481e-003
638.134,171.448, 4.2695e-003
640.597,172.337, 4.2903e-003
643.049,173.225, 4.3110e-003
645.501,174.113, 4.3319e-003
647.939,175.002, 4.3523e-003
650.374,175.89, 4.3728e-003
652.833,176.778, 4.3936e-003
655.259,177.667, 4.4140e-003
657.677,178.555, 4.4339e-003
660.053,179.443, 4.4553e-003
662.424,180.332, 4.4759e-003
664.81,181.22, 4.4954e-003
667.272,182.108, 4.5151e-003
669.764,182.997, 4.5351e-003
672.253,183.885, 4.5548e-003
674.716,184.773, 4.5753e-003
677.173,185.662, 4.5962e-003
679.601,186.55, 4.6165e-003
682.01,187.438, 4.6367e-003
684.411,188.327, 4.6571e-003
686.814,189.215, 4.6774e-003
689.216,190.103, 4.6979e-003
691.591,190.992, 4.7180e-003
693.954,191.88, 4.7365e-003
696.292,192.768, 4.7572e-003
698.624,193.657, 4.7778e-003
700.949,194.545, 4.7981e-003
703.271,195.433, 4.8177e-003
705.592,196.322, 4.8375e-003
707.901,197.21, 4.8573e-003
710.221,198.098, 4.8768e-003
712.568,198.987, 4.8971e-003
714.908,199.875, 4.9169e-003
717.245,200.763, 4.9372e-003
719.58,201.652, 4.9574e-003
721.914,202.54, 4.9772e-003
724.26,203.428, 4.9980e-003
726.592,204.317, 5.0181e-003
728.913,205.205, 5.0386e-003
731.236,206.093, 5.0598e-003
733.502,206.982, 5.0816e-003
735.741,207.87, 5.1024e-003
738.012,208.758, 5.1225e-003
740.347,209.647, 5.1422e-003
742.726,210.535, 5.1625e-003
745.12,211.423, 5.1832e-003
747.481,212.312, 5.2040e-003
749.834,213.2, 5.2245e-003
752.193,214.088, 5.2452e-003
754.52,214.977, 5.2660e-003
756.865,215.865, 5.2870e-003
759.185,216.753, 5.3072e-003
761.496,217.642, 5.3274e-003
763.8,218.53, 5.3490e-003
766.088,219.418, 5.3698e-003
768.375,220.307, 5.3904e-003
770.655,221.195, 5.4112e-003
772.966,222.083, 5.4325e-003
775.258,222.972, 5.4538e-003
777.529,223.86, 5.4750e-003
779.814,224.748, 5.4962e-003
782.084,225.637, 5.5177e-003
784.37,226.525, 5.5388e-003
786.651,227.413, 5.5606e-003
788.911,228.302, 5.5819e-003
791.101,229.19, 5.6034e-003
793.237,230.078, 5.6239e-003
795.436,230.967, 5.6451e-003
797.572,231.855, 5.6664e-003
799.623,232.743, 5.6878e-003
801.732,233.632, 5.7081e-003
803.919,234.52, 5.7279e-003
806.142,235.408, 5.7482e-003
808.335,236.297, 5.7696e-003
810.447,237.185, 5.7914e-003
812.529,238.073, 5.8134e-003
814.628,238.962, 5.8327e-003
816.741,239.85, 5.8533e-003
818.872,240.738, 5.8736e-003
821.15,241.627, 5.8936e-003
823.482,242.515, 5.9153e-003
825.734,243.403, 5.9373e-003
827.936,244.292, 5.9587e-003
830.19,245.18, 5.9801e-003
832.425,246.068, 6.0024e-003
834.674,246.957, 6.0245e-003
836.949,247.845, 6.0464e-003
839.226,248.733, 6.0685e-003
841.505,249.622, 6.0908e-003
843.795,250.51, 6.1135e-003
846.097,251.398, 6.1359e-003
848.401,252.287, 6.1587e-003
850.705,253.175, 6.1818e-003
852.961,254.063, 6.2047e-003
855.174,254.952, 6.2284e-003
857.317,255.84, 6.2516e-003
859.438,256.728, 6.2737e-003
861.625,257.617, 6.2956e-003
863.935,258.505, 6.3182e-003
866.292,259.393, 6.3423e-003
868.631,260.282, 6.3663e-003
870.96,261.17, 6.3905e-003
873.266,262.058, 6.4144e-003
875.402,262.947, 6.4380e-003
877.691,263.835, 6.4612e-003
879.884,264.68, 6.4842e-003