Folder: thermal-expansion/data/14.1mm-083019 (part 3)

File: moon000s1r1-15mm-091219.csv
#EXPORTTYPE:           ,DATA ALL
#FILE:                 ,moonstoneS1.ngb-sle
#FORMAT:               ,NETZSCH5
#FTYPE:                ,ANSI
#IDENTITY:             ,moonstone
#DECIMAL:              ,POINT
#SEPARATOR:            ,COMMA
#MTYPE:                ,DIL
#INSTRUMENT:           ,NETZSCH DIL 402C
#PROJECT:              ,feldspar
#DATE/TIME:            ,9/12/2019 10:20:17 AM (UTC-5)
#CORR. FILE:           ,
#TEMPCAL:              ,TCALZERO.TMX
#LABORATORY:           ,Mineral Physics
#OPERATOR:             ,PAG
#REMARK:               ,bare, norm start, for bytown and rocks moonstone Or-Ab solid soln box 1 prob 010 or 001thin
#SAMPLE:               ,fmu-box1
#SAMPLE LENGTH /mm:    ,14.978
#MATERIAL:             ,sapphire stnd
#MEASMODE:             ,Standard Expansion
#PURGE GAS 1:          ,ARGON
#FLOW RATE 1 /(ml/min):,75
#M.RANGE /µm:          ,500
#CORR. CODE:           ,010
#RANGE:                ,20.0°C/3.0(K/min)/900.0°C
#SEGMENT:              ,S1/1
#SEG. 1:               ,20.0°C/3.0(K/min)/900.0°C

##Temp./°C,Time/min,dL/Lo
 22.51000,  0.00000, 2.2189e-005
 22.56700,  0.84500, 2.8289e-005
 22.60700,  1.69000, 2.8975e-005
 22.63700,  2.53500, 2.8180e-005
 22.65600,  3.38000, 2.6738e-005
 22.84300,  4.22500, 2.3769e-005
 23.82000,  5.07000, 1.1769e-005
 26.04400,  5.91500,-5.7940e-006
 29.31600,  6.76000,-2.2609e-005
 33.21800,  7.60500,-3.0104e-005
 37.27800,  8.45000,-2.8331e-005
 41.35200,  9.29500,-1.9127e-005
 45.47700, 10.14000,-6.8399e-006
 49.76300, 10.98500, 7.3614e-006
 54.29100, 11.83000, 2.3413e-005
 58.96200, 12.67500, 4.1838e-005
 63.70000, 13.52000, 6.3944e-005
 68.43400, 14.36500, 8.9841e-005
 73.12900, 15.21000, 1.1865e-004
 77.76000, 16.05500, 1.4941e-004
 82.34700, 16.90000, 1.8196e-004
 86.87900, 17.74500, 2.1491e-004
 91.33100, 18.59000, 2.4834e-004
 95.75000, 19.43500, 2.8247e-004
100.075, 20.28000, 3.1660e-004
104.36, 21.12500, 3.5087e-004
108.573, 21.97000, 3.8548e-004
112.765, 22.81500, 4.1992e-004
116.926, 23.66000, 4.5434e-004
121.044, 24.50500, 4.8802e-004
125.136, 25.35000, 5.2241e-004
129.195, 26.19500, 5.5611e-004
133.232, 27.04000, 5.9033e-004
137.234, 27.88500, 6.2441e-004
141.217, 28.73000, 6.5797e-004
145.199, 29.57500, 6.9173e-004
149.117, 30.42000, 7.2545e-004
153.041, 31.26500, 7.5883e-004
156.936, 32.11000, 7.9265e-004
160.825, 32.95500, 8.2635e-004
164.701, 33.80000, 8.5991e-004
168.544, 34.64500, 8.9341e-004
172.378, 35.49000, 9.2700e-004
176.198, 36.33500, 9.6080e-004
180.001, 37.18000, 9.9406e-004
183.794, 38.02500, 1.0280e-003
187.567, 38.87000, 1.0615e-003
191.327, 39.71500, 1.0951e-003
195.067, 40.56000, 1.1287e-003
198.804, 41.40500, 1.1628e-003
202.508, 42.25000, 1.1962e-003
206.197, 43.09500, 1.2300e-003
209.871, 43.94000, 1.2634e-003
213.519, 44.78500, 1.2968e-003
217.151, 45.63000, 1.3300e-003
220.782, 46.47500, 1.3648e-003
224.369, 47.32000, 1.3979e-003
227.983, 48.16500, 1.4322e-003
231.554, 49.01000, 1.4660e-003
235.113, 49.85500, 1.4996e-003
238.641, 50.70000, 1.5333e-003
242.16, 51.54500, 1.5672e-003
245.669, 52.39000, 1.6013e-003
249.159, 53.23500, 1.6351e-003
252.641, 54.08000, 1.6691e-003
256.106, 54.92500, 1.7030e-003
259.566, 55.77000, 1.7365e-003
262.993, 56.61500, 1.7705e-003
266.415, 57.46000, 1.8050e-003
269.806, 58.30500, 1.8387e-003
273.167, 59.15000, 1.8723e-003
276.544, 59.99500, 1.9069e-003
279.875, 60.84000, 1.9406e-003
283.227, 61.68500, 1.9753e-003
286.551, 62.53000, 2.0088e-003
289.854, 63.37500, 2.0434e-003
293.148, 64.22000, 2.0783e-003
296.417, 65.06500, 2.1134e-003
299.68, 65.91000, 2.1476e-003
302.942, 66.75500, 2.1829e-003
306.186, 67.60000, 2.2171e-003
309.407, 68.44500, 2.2518e-003
312.611, 69.29000, 2.2874e-003
315.799, 70.13500, 2.3230e-003
318.997, 70.98000, 2.3619e-003
322.172, 71.82500, 2.4076e-003
325.332, 72.67000, 2.4612e-003
328.458, 73.51500, 2.4812e-003
331.566, 74.36000, 2.5918e-003
334.687, 75.20500, 2.7004e-003
337.781, 76.05000, 2.7559e-003
340.871, 76.89500, 3.0596e-003
343.955, 77.74000, 3.0722e-003
347.022, 78.58500, 3.1343e-003
350.084, 79.43000, 3.1539e-003
353.125, 80.27500, 3.1740e-003
356.153, 81.12000, 3.1977e-003
359.183, 81.96500, 3.2970e-003
362.189, 82.81000, 3.3244e-003
365.191, 83.65500, 3.3466e-003
368.184, 84.50000, 3.3732e-003
371.176, 85.34500, 3.3910e-003
374.134, 86.19000, 3.4438e-003
377.071, 87.03500, 3.4617e-003
379.963, 87.88000, 3.4929e-003
382.858, 88.72500, 3.5146e-003
385.828, 89.57000, 3.5735e-003
388.867, 90.41500, 3.5724e-003
391.92, 91.26000, 3.5965e-003
394.957, 92.10500, 3.6218e-003
397.955, 92.95000, 3.6542e-003
400.927, 93.79500, 3.6900e-003
403.861, 94.64000, 3.7266e-003
406.782, 95.48500, 3.7471e-003
409.677, 96.33000, 3.7704e-003
412.547, 97.17500, 3.7948e-003
415.399, 98.02000, 3.8272e-003
418.231, 98.86500, 3.8449e-003
421.049, 99.71000, 3.8690e-003
423.845,100.555, 3.8937e-003
426.647,101.4, 3.9189e-003
429.419,102.245, 3.9422e-003
432.192,103.09, 3.9709e-003
434.957,103.935, 3.9957e-003
437.71,104.78, 4.0274e-003
440.456,105.625, 4.0515e-003
443.193,106.47, 4.0763e-003
445.925,107.315, 4.1010e-003
448.653,108.16, 4.1255e-003
451.37,109.005, 4.1495e-003
454.087,109.85, 4.1744e-003
456.789,110.695, 4.1998e-003
459.483,111.54, 4.2239e-003
462.162,112.385, 4.2476e-003
464.856,113.23, 4.2728e-003
467.536,114.075, 4.2969e-003
470.21,114.92, 4.3229e-003
472.874,115.765, 4.3472e-003
475.532,116.61, 4.3714e-003
478.177,117.455, 4.3966e-003
480.823,118.3, 4.4215e-003
483.467,119.145, 4.4467e-003
486.093,119.99, 4.4711e-003
488.721,120.835, 4.4957e-003
491.344,121.68, 4.5210e-003
493.949,122.525, 4.5452e-003
496.542,123.37, 4.5694e-003
499.154,124.215, 4.5947e-003
501.758,125.06, 4.6190e-003
504.354,125.905, 4.6428e-003
506.939,126.75, 4.6687e-003
509.519,127.595, 4.6933e-003
512.097,128.44, 4.7168e-003
514.671,129.285, 4.7414e-003
517.206,130.13, 4.7656e-003
519.748,130.975, 4.7912e-003
522.255,131.82, 4.8181e-003
524.747,132.665, 4.8425e-003
527.261,133.51, 4.8659e-003
529.847,134.355, 4.8889e-003
532.477,135.2, 4.9131e-003
535.117,136.045, 4.9389e-003
537.733,136.89, 4.9627e-003
540.314,137.735, 4.9867e-003
542.871,138.58, 5.0113e-003
545.421,139.425, 5.0358e-003
547.95,140.27, 5.0599e-003
550.472,141.115, 5.0839e-003
552.974,141.96, 5.1145e-003
555.479,142.805, 5.1348e-003
557.946,143.65, 5.1589e-003
560.37,144.495, 5.1830e-003
562.762,145.34, 5.2088e-003
565.189,146.185, 5.2313e-003
567.672,147.03, 5.2550e-003
570.231,147.875, 5.2765e-003
572.782,148.72, 5.3001e-003
575.312,149.565, 5.3236e-003
577.819,150.41, 5.3473e-003
580.323,151.255, 5.3701e-003
582.803,152.1, 5.3936e-003
585.267,152.945, 5.4186e-003
587.71,153.79, 5.4410e-003
590.136,154.635, 5.4653e-003
592.564,155.48, 5.4875e-003
594.982,156.325, 5.5105e-003
597.393,157.17, 5.5339e-003
599.803,158.015, 5.5571e-003
602.212,158.86, 5.5797e-003
604.603,159.705, 5.6033e-003
606.988,160.55, 5.6269e-003
609.376,161.395, 5.6504e-003
611.751,162.24, 5.6736e-003
614.136,163.085, 5.6963e-003
616.513,163.93, 5.7198e-003
618.885,164.775, 5.7436e-003
621.254,165.62, 5.7670e-003
623.615,166.465, 5.7906e-003
625.979,167.31, 5.8145e-003
628.334,168.155, 5.8379e-003
630.692,169, 5.8613e-003
633.045,169.845, 5.8835e-003
635.408,170.69, 5.9077e-003
637.77,171.535, 5.9312e-003
640.125,172.38, 5.9553e-003
642.467,173.225, 5.9792e-003
644.776,174.07, 6.0041e-003
647.07,174.915, 6.0287e-003
649.339,175.76, 6.0526e-003
651.644,176.605, 6.0739e-003
654.012,177.45, 6.0970e-003
656.394,178.295, 6.1200e-003
658.789,179.14, 6.1439e-003
661.177,179.985, 6.1673e-003
663.538,180.83, 6.1908e-003
665.876,181.675, 6.2142e-003
668.21,182.52, 6.2371e-003
670.541,183.365, 6.2603e-003
672.861,184.21, 6.2833e-003
675.147,185.055, 6.3059e-003
677.433,185.9, 6.3265e-003
679.716,186.745, 6.3490e-003
682.004,187.59, 6.3746e-003
684.272,188.435, 6.3967e-003
686.541,189.28, 6.4195e-003
688.802,190.125, 6.4421e-003
691.06,190.97, 6.4647e-003
693.296,191.815, 6.4873e-003
695.504,192.66, 6.5106e-003
697.711,193.505, 6.5329e-003
699.938,194.35, 6.5529e-003
702.169,195.195, 6.5753e-003
704.41,196.04, 6.5993e-003
706.612,196.885, 6.6219e-003
708.833,197.73, 6.6437e-003
711.046,198.575, 6.6653e-003
713.271,199.42, 6.6873e-003
715.497,200.265, 6.7092e-003
717.722,201.11, 6.7313e-003
719.918,201.955, 6.7533e-003
722.089,202.8, 6.7760e-003
724.237,203.645, 6.7987e-003
726.393,204.49, 6.8201e-003
728.611,205.335, 6.8404e-003
730.882,206.18, 6.8604e-003
733.156,207.025, 6.8821e-003
735.421,207.87, 6.9040e-003
737.68,208.715, 6.9273e-003
739.939,209.56, 6.9487e-003
742.19,210.405, 6.9708e-003
744.413,211.25, 6.9920e-003
746.65,212.095, 7.0142e-003
748.865,212.94, 7.0359e-003
751.055,213.785, 7.0569e-003
753.268,214.63, 7.0801e-003
755.477,215.475, 7.1019e-003
757.675,216.32, 7.1234e-003
759.87,217.165, 7.1435e-003
762.051,218.01, 7.1650e-003
764.225,218.855, 7.1869e-003
766.402,219.7, 7.2082e-003
768.578,220.545, 7.2303e-003
770.762,221.39, 7.2533e-003
772.936,222.235, 7.2749e-003
775.121,223.08, 7.2985e-003
777.289,223.925, 7.3219e-003
779.445,224.77, 7.3478e-003
781.617,225.615, 7.3674e-003
783.792,226.46, 7.3884e-003
785.921,227.305, 7.4105e-003
788.01,228.15, 7.4336e-003
790.052,228.995, 7.4653e-003
792.036,229.84, 7.4875e-003
794.087,230.685, 7.5100e-003
796.226,231.53, 7.5312e-003
798.386,232.375, 7.5545e-003
800.564,233.22, 7.5742e-003
802.725,234.065, 7.5963e-003
804.864,234.91, 7.6191e-003
807.006,235.755, 7.6405e-003
809.121,236.6, 7.6644e-003
811.255,237.445, 7.6872e-003
813.333,238.29, 7.7091e-003
815.396,239.135, 7.7287e-003
817.46,239.98, 7.7478e-003
819.507,240.825, 7.7683e-003
821.594,241.67, 7.7888e-003
823.686,242.515, 7.8133e-003
825.84,243.36, 7.8355e-003
828.037,244.205, 7.8631e-003
830.212,245.05, 7.8841e-003
832.353,245.895, 7.9057e-003
834.492,246.74, 7.9288e-003
836.645,247.585, 7.9483e-003
838.796,248.43, 7.9710e-003
840.965,249.275, 8.0121e-003
843.142,250.12, 8.0371e-003
845.311,250.965, 8.0610e-003
847.483,251.81, 8.0854e-003
849.617,252.655, 8.1098e-003
850.334,252.937, 8.1176e-003

File: moon000s1r2-15mm-091519.csv
#EXPORTTYPE:           ,DATA ALL
#FILE:                 ,moonstoneS1r2.ngb-sle
#FORMAT:               ,NETZSCH5
#FTYPE:                ,ANSI
#IDENTITY:             ,moonstone 1 rerun
#DECIMAL:              ,POINT
#SEPARATOR:            ,COMMA
#MTYPE:                ,DIL
#INSTRUMENT:           ,NETZSCH DIL 402C
#PROJECT:              ,feldspar
#DATE/TIME:            ,9/15/2019 3:17:57 PM (UTC-5)
#CORR. FILE:           ,
#TEMPCAL:              ,TCALZERO.TMX
#LABORATORY:           ,Mineral Physics
#OPERATOR:             ,PAG
#REMARK:               ,bare, norm start, for bytown and rocks fast run 5 Kmin, moonstone 1, 010 or 001
#SAMPLE:               ,moonstone 1 heated
#SAMPLE LENGTH /mm:    ,14.978
#MATERIAL:             ,sapphire stnd
#MEASMODE:             ,Standard Expansion
#PURGE GAS 1:          ,ARGON
#FLOW RATE 1 /(ml/min):,75
#M.RANGE /µm:          ,500
#CORR. CODE:           ,010
#RANGE:                ,20.0°C/5.0(K/min)/425.0°C
#SEGMENT:              ,S1/1
#SEG. 1:               ,20.0°C/5.0(K/min)/425.0°C

##Temp./°C,Time/min,dL/Lo
 21.75600, 0.00000, 1.6801e-005
 21.73900, 0.23833, 1.6271e-005
 21.74100, 0.47667, 1.5626e-005
 21.72100, 0.71500, 1.5183e-005
 21.69300, 0.95333, 1.4165e-005
 21.67800, 1.19167, 1.3282e-005
 21.64600, 1.43000, 1.2410e-005
 21.61900, 1.66833, 1.1600e-005
 21.60700, 1.90667, 1.1072e-005
 21.60600, 2.14500, 1.0188e-005
 21.63000, 2.38333, 9.0579e-006
 21.71700, 2.62167, 7.1508e-006
 21.90600, 2.86000, 5.0794e-006
 22.19600, 3.09833, 2.0191e-006
 22.60500, 3.33667,-2.4770e-006
 23.18200, 3.57500,-7.3819e-006
 23.92500, 3.81333,-1.3042e-005
 24.84600, 4.05167,-2.2659e-005
 25.91000, 4.29000,-3.2124e-005
 27.14800, 4.52833,-4.1656e-005
 28.52500, 4.76667,-5.1477e-005
 30.04000, 5.00500,-6.0592e-005
 31.66100, 5.24333,-6.9262e-005
 33.38600, 5.48167,-7.7759e-005
 35.17500, 5.72000,-8.4642e-005
 37.01300, 5.95833,-9.0862e-005
 38.92400, 6.19667,-9.5345e-005
 40.82500, 6.43500,-9.9532e-005
 42.76800, 6.67333,-1.0140e-004
 44.69900, 6.91167,-1.0249e-004
 46.65300, 7.15000,-1.0326e-004
 48.61100, 7.38833,-1.0229e-004
 50.57000, 7.62667,-1.0170e-004
 52.51400, 7.86500,-9.9394e-005
 54.48400, 8.10333,-9.6945e-005
 56.46800, 8.34167,-9.3198e-005
 58.46100, 8.58000,-8.9132e-005
 60.47600, 8.81833,-8.5427e-005
 62.50800, 9.05667,-8.1161e-005
 64.55900, 9.29500,-7.5641e-005
 66.63900, 9.53333,-7.1216e-005
 68.72800, 9.77167,-6.5159e-005
 70.82500,10.01000,-5.9837e-005
 72.95100,10.24833,-5.2221e-005
 75.10100,10.48667,-4.5323e-005
 77.24400,10.72500,-3.8384e-005
 79.39100,10.96333,-3.0039e-005
 81.54400,11.20167,-2.1926e-005
 83.67800,11.44000,-1.2876e-005
 85.82600,11.67833,-4.1574e-006
 87.96500,11.91667, 6.0219e-006
 90.11800,12.15500, 1.5426e-005
 92.25100,12.39333, 2.5585e-005
 94.36600,12.63167, 3.6596e-005
 96.48000,12.87000, 4.7783e-005
 98.58000,13.10833, 5.8381e-005
100.674,13.34667, 6.9910e-005
102.758,13.58500, 8.1949e-005
104.836,13.82333, 9.3608e-005
106.887,14.06167, 1.0496e-004
108.951,14.30000, 1.1696e-004
111.01,14.53833, 1.2909e-004
113.061,14.77667, 1.4190e-004
115.091,15.01500, 1.5419e-004
117.138,15.25333, 1.6662e-004
119.162,15.49167, 1.7880e-004
121.193,15.73000, 1.9203e-004
123.202,15.96833, 2.0442e-004
125.217,16.20667, 2.1734e-004
127.22,16.44500, 2.3043e-004
129.213,16.68333, 2.4292e-004
131.202,16.92167, 2.5567e-004
133.189,17.16000, 2.6868e-004
135.162,17.39833, 2.8219e-004
137.128,17.63667, 2.9128e-004
139.095,17.87500, 3.0740e-004
141.055,18.11333, 3.2261e-004
143.007,18.35167, 3.3466e-004
144.958,18.59000, 3.4743e-004
146.895,18.82833, 3.6036e-004
148.827,19.06667, 3.7416e-004
150.742,19.30500, 3.8705e-004
152.657,19.54333, 4.0016e-004
154.563,19.78167, 4.1313e-004
156.465,20.02000, 4.2617e-004
158.37,20.25833, 4.3938e-004
160.256,20.49667, 4.5244e-004
162.16,20.73500, 4.6607e-004
164.043,20.97333, 4.7855e-004
165.921,21.21167, 4.9213e-004
167.804,21.45000, 5.0488e-004
169.663,21.68833, 5.1767e-004
171.509,21.92667, 5.3015e-004
173.375,22.16500, 5.4336e-004
175.243,22.40333, 5.5621e-004
177.09,22.64167, 5.6966e-004
178.935,22.88000, 5.8225e-004
180.769,23.11833, 5.9510e-004
182.608,23.35667, 6.0855e-004
184.438,23.59500, 6.2163e-004
186.258,23.83333, 6.3406e-004
188.086,24.07167, 6.4739e-004
189.907,24.31000, 6.6075e-004
191.711,24.54833, 6.7313e-004
193.52,24.78667, 6.8578e-004
195.331,25.02500, 6.9897e-004
197.133,25.26333, 7.1223e-004
198.921,25.50167, 7.2469e-004
200.711,25.74000, 7.3772e-004
202.483,25.97833, 7.5022e-004
204.259,26.21667, 7.6285e-004
206.029,26.45500, 7.7570e-004
207.793,26.69333, 7.8819e-004
209.556,26.93167, 8.0059e-004
211.312,27.17000, 8.1326e-004
213.066,27.40833, 8.2627e-004
214.825,27.64667, 8.3838e-004
216.572,27.88500, 8.5126e-004
218.312,28.12333, 8.6381e-004
220.045,28.36167, 8.7598e-004
221.782,28.60000, 8.8856e-004
223.493,28.83833, 9.0132e-004
225.217,29.07667, 9.1380e-004
226.952,29.31500, 9.2588e-004
228.663,29.55333, 9.3893e-004
230.375,29.79167, 9.5107e-004
232.088,30.03000, 9.6387e-004
233.794,30.26833, 9.7604e-004
235.483,30.50667, 9.8864e-004
237.188,30.74500, 1.0008e-003
238.875,30.98333, 1.0133e-003
240.569,31.22167, 1.0252e-003
242.249,31.46000, 1.0381e-003
243.93,31.69833, 1.0506e-003
245.604,31.93667, 1.0629e-003
247.287,32.17500, 1.0751e-003
248.953,32.41333, 1.0872e-003
250.618,32.65167, 1.0994e-003
252.283,32.89000, 1.1119e-003
253.934,33.12833, 1.1244e-003
255.586,33.36667, 1.1367e-003
257.231,33.60500, 1.1490e-003
258.877,33.84333, 1.1610e-003
260.516,34.08167, 1.1731e-003
262.154,34.32000, 1.1854e-003
263.784,34.55833, 1.1977e-003
265.423,34.79667, 1.2098e-003
267.045,35.03500, 1.2213e-003
268.66,35.27333, 1.2335e-003
270.285,35.51167, 1.2456e-003
271.887,35.75000, 1.2575e-003
273.498,35.98833, 1.2694e-003
275.115,36.22667, 1.2818e-003
276.721,36.46500, 1.2934e-003
278.333,36.70333, 1.3055e-003
279.922,36.94167, 1.3176e-003
281.515,37.18000, 1.3292e-003
283.089,37.41833, 1.3411e-003
284.673,37.65667, 1.3529e-003
286.25,37.89500, 1.3642e-003
287.829,38.13333, 1.3764e-003
289.398,38.37167, 1.3877e-003
290.971,38.61000, 1.3996e-003
292.542,38.84833, 1.4113e-003
294.102,39.08667, 1.4233e-003
295.676,39.32500, 1.4351e-003
297.234,39.56333, 1.4468e-003
298.783,39.80167, 1.4581e-003
300.328,40.04000, 1.4698e-003
301.86,40.27833, 1.4811e-003
303.402,40.51667, 1.4929e-003
304.941,40.75500, 1.5043e-003
306.487,40.99333, 1.5157e-003
308.022,41.23167, 1.5273e-003
309.553,41.47000, 1.5387e-003
311.085,41.70833, 1.5501e-003
312.61,41.94667, 1.5615e-003
314.136,42.18500, 1.5729e-003
315.66,42.42333, 1.5844e-003
317.182,42.66167, 1.5960e-003
318.696,42.90000, 1.6072e-003
320.202,43.13833, 1.6182e-003
321.709,43.37667, 1.6298e-003
323.197,43.61500, 1.6410e-003
324.704,43.85333, 1.6523e-003
326.198,44.09167, 1.6638e-003
327.693,44.33000, 1.6748e-003
329.179,44.56833, 1.6860e-003
330.656,44.80667, 1.6976e-003
332.142,45.04500, 1.7085e-003
333.619,45.28333, 1.7194e-003
335.09,45.52167, 1.7305e-003
336.572,45.76000, 1.7416e-003
338.04,45.99833, 1.7527e-003
339.513,46.23667, 1.7641e-003
340.99,46.47500, 1.7750e-003
342.446,46.71333, 1.7858e-003
343.903,46.95167, 1.7971e-003
345.369,47.19000, 1.8077e-003
346.825,47.42833, 1.8188e-003
348.27,47.66667, 1.8295e-003
349.725,47.90500, 1.8408e-003
351.181,48.14333, 1.8517e-003
352.62,48.38167, 1.8625e-003
354.06,48.62000, 1.8731e-003
355.394,48.85833, 1.8834e-003
356.832,49.09667, 1.8944e-003
358.264,49.33500, 1.9050e-003
359.707,49.57333, 1.9160e-003
361.131,49.81167, 1.9265e-003
362.556,50.05000, 1.9373e-003
363.971,50.28833, 1.9481e-003
365.384,50.52667, 1.9588e-003
366.814,50.76500, 1.9698e-003
368.23,51.00333, 1.9801e-003
369.641,51.24167, 1.9906e-003
371.052,51.48000, 2.0014e-003
372.455,51.71833, 2.0118e-003
373.864,51.95667, 2.0229e-003
375.272,52.19500, 2.0329e-003
376.673,52.43333, 2.0438e-003
378.071,52.67167, 2.0543e-003
379.461,52.91000, 2.0643e-003
380.86,53.14833, 2.0752e-003
382.25,53.38667, 2.0857e-003
383.638,53.62500, 2.0961e-003
385.036,53.86333, 2.1069e-003
386.416,54.10167, 2.1174e-003
387.794,54.34000, 2.1279e-003
389.178,54.57833, 2.1383e-003
390.557,54.81667, 2.1483e-003
391.936,55.05500, 2.1592e-003
393.308,55.29333, 2.1696e-003
394.68,55.53167, 2.1797e-003
396.045,55.77000, 2.1900e-003
397.419,56.00833, 2.2004e-003
398.78,56.24667, 2.2107e-003
400.146,56.48500, 2.2203e-003
401.508,56.72333, 2.2308e-003
402.871,56.96167, 2.2414e-003
404.226,57.20000, 2.2514e-003
405.579,57.43833, 2.2613e-003
406.92,57.67667, 2.2718e-003
408.277,57.91500, 2.2821e-003
409.623,58.15333, 2.2919e-003
410.966,58.39167, 2.3017e-003
412.301,58.63000, 2.3119e-003
413.635,58.86833, 2.3220e-003
414.973,59.10667, 2.3316e-003
416.308,59.34500, 2.3414e-003
417.644,59.58333, 2.3517e-003
418.974,59.82167, 2.3612e-003
420.305,60.06000, 2.3711e-003
421.637,60.29833, 2.3811e-003
422.966,60.53667, 2.3908e-003
424.296,60.77500, 2.4010e-003
425.613,61.01333, 2.4109e-003
426.933,61.25167, 2.4207e-003
428.248,61.49000, 2.4304e-003
429.573,61.72833, 2.4402e-003
430.875,61.96667, 2.4497e-003
432.187,62.20500, 2.4596e-003
433.495,62.44333, 2.4692e-003
434.807,62.68167, 2.4792e-003
436.116,62.92000, 2.4887e-003
437.427,63.15833, 2.4985e-003
438.719,63.39667, 2.5080e-003
440.029,63.63500, 2.5183e-003
441.334,63.87333, 2.5281e-003
442.624,64.11167, 2.5377e-003
443.92,64.35000, 2.5471e-003
445.21,64.58833, 2.5573e-003
446.501,64.82667, 2.5670e-003
447.789,65.06500, 2.5765e-003
449.078,65.30333, 2.5864e-003
450.36,65.54167, 2.5955e-003
451.642,65.78000, 2.6048e-003
452.924,66.01833, 2.6146e-003
454.204,66.25667, 2.6241e-003
455.487,66.49500, 2.6336e-003
456.764,66.73333, 2.6435e-003
458.038,66.97167, 2.6530e-003
459.31,67.21000, 2.6626e-003
459.891,67.31833, 2.6664e-003