Folder: thermal-expansion/data/14.1mm-083019

Note: data/14.1mm-083019/albAmel100r1-11c.txt
EXPORTTYPE: DATA ALL
FILE: albAmel100run1.ngb-sle
FORMAT: NETZSCH5
FTYPE: ANSI
IDENTITY: albite amelia 100
DECIMAL: POINT
SEPARATOR: COMMA
MTYPE: DIL
INSTRUMENT: NETZSCH DIL 402C
PROJECT: feldspar
DATE/TIME: 8/12/2019 9:43:37 AM (UTC-5)
CORR. FILE: 
TEMPCAL: TCALZERO.TMX
LABORATORY: Mineral Physics
OPERATOR: PAG
REMARK: colorless amelia alb per to (010) & (001)
SAMPLE: albite
SAMPLE LENGTH /mm: 11.13
MATERIAL: sapphire stnd
MEASMODE: Standard Expansion
PURGE GAS 1: ARGON
FLOW RATE 1 /(ml/min): 75
M.RANGE /µm: 500
CORR. CODE: 010
RANGE: 20.0°C/3.0(K/min)/1000.0°C
SEGMENT: S1/1
SEG. 1: 20.0°C/3.0(K/min)/1000.0°C

Note: data/14.1mm-083019/anorShaws1r1-13mm-090119c.txt
EXPORTTYPE: DATA ALL
FILE: anorthShawS1R1.ngb-sle
FORMAT: NETZSCH5
FTYPE: ANSI
IDENTITY: anorthosite shawmere
DECIMAL: POINT
SEPARATOR: COMMA
MTYPE: DIL
INSTRUMENT: NETZSCH DIL 402C
PROJECT: feldspar
DATE/TIME: 9/1/2019 1:09:40 PM (UTC-5)
CORR. FILE: 
TEMPCAL: TCALZERO.TMX
LABORATORY: Mineral Physics
OPERATOR: PAG
REMARK: bare
SAMPLE: shawmere fresh
SAMPLE LENGTH /mm: 12.99
MATERIAL: sapphire stnd
MEASMODE: Standard Expansion
PURGE GAS 1: ARGON
FLOW RATE 1 /(ml/min): 75
M.RANGE /µm: 500
CORR. CODE: 010
RANGE: 20.0°C/3.0(K/min)/1000.0°C
SEGMENT: S1/1
SEG. 1: 20.0°C/3.0(K/min)/1000.0°C

Note: data/14.1mm-083019/byto000sB1r1-14c.txt
EXPORTTYPE: DATA ALL
FILE: bytownBs1r1.ngb-sle
FORMAT: NETZSCH5
FTYPE: ANSI
IDENTITY: bytownite s1
DECIMAL: POINT
SEPARATOR: COMMA
MTYPE: DIL
INSTRUMENT: NETZSCH DIL 402C
PROJECT: feldspar
DATE/TIME: 9/9/2019 9:42:22 AM (UTC-5)
CORR. FILE: 
TEMPCAL: TCALZERO.TMX
LABORATORY: Mineral Physics
OPERATOR: PAG
REMARK: bare
SAMPLE: FBM-B
SAMPLE LENGTH /mm: 14.265
MATERIAL: sapphire stnd
MEASMODE: Standard Expansion
PURGE GAS 1: ARGON
FLOW RATE 1 /(ml/min): 75
M.RANGE /µm: 500
CORR. CODE: 010
RANGE: 20.0°C/3.0(K/min)/1180.0°C/30.0(K/min)/900.0°C/
SEGMENT: S1-2/2
SEG. 1: 20.0°C/3.0(K/min)/1180.0°C
SEG. 2: 1180.0°C/30.0(K/min)/900.0°C

Note: data/14.1mm-083019/byto000sCr1-14c.txt
EXPORTTYPE: DATA ALL
FILE: bytownCrun1.ngb-sle
FORMAT: NETZSCH5
FTYPE: ANSI
IDENTITY: bytwonite C
DECIMAL: POINT
SEPARATOR: COMMA
MTYPE: DIL
INSTRUMENT: NETZSCH DIL 402C
PROJECT: feldspar
DATE/TIME: 9/11/2019 9:46:40 AM (UTC-5)
CORR. FILE: 
TEMPCAL: TCALZERO.TMX
LABORATORY: Mineral Physics
OPERATOR: PAG
REMARK: bare
SAMPLE: fmb-C
SAMPLE LENGTH /mm: 14.583
MATERIAL: sapphire stnd
MEASMODE: Standard Expansion
PURGE GAS 1: ARGON
FLOW RATE 1 /(ml/min): 75
M.RANGE /µm: 500
CORR. CODE: 010
RANGE: 20.0°C/3.0(K/min)/1206.0°C/25.0(K/min)/900.0°C/
SEGMENT: S1-2/2
SEG. 1: 20.0°C/3.0(K/min)/1206.0°C
SEG. 2: 1206.0°C/25.0(K/min)/900.0°C

Note: data/14.1mm-083019/ExpDat_sapph14c.txt
EXPORTTYPE: DATA ALL
FILE: sapph14mm08302019.ngb-cle
FORMAT: NETZSCH5
FTYPE: ANSI
IDENTITY: sapph stnd 14
DECIMAL: POINT
SEPARATOR: COMMA
MTYPE: DIL
INSTRUMENT: NETZSCH DIL 402C
PROJECT: feldspar
DATE/TIME: 8/30/2019 10:03:28 AM (UTC-5)
CORR. FILE: 
TEMPCAL: TCALZERO.TMX
LABORATORY: Mineral Physics
OPERATOR: PAG
REMARK: bare
SAMPLE: sapphire
SAMPLE LENGTH /mm: 14.059
MATERIAL: sapphire stnd
MEASMODE: Standard Expansion
PURGE GAS 1: ARGON
FLOW RATE 1 /(ml/min): 75
M.RANGE /µm: 500
CORR. CODE: 010
RANGE: 20.0°C/3.0(K/min)/1350.0°C/25.0(K/min)/900.0°C/
SEGMENT: S1-2/2
SEG. 1: 20.0°C/3.0(K/min)/1350.0°C
SEG. 2: 1350.0°C/25.0(K/min)/900.0°C

Note: data/14.1mm-083019/fmt001sAr1-11x.txt
EXPORTTYPE: DATA ALL
FILE: fmtl001Arun1.ngb-sle
FORMAT: NETZSCH5
FTYPE: ANSI
IDENTITY: fmt olig base
DECIMAL: POINT
SEPARATOR: COMMA
MTYPE: DIL
INSTRUMENT: NETZSCH DIL 402C
PROJECT: feldspar
DATE/TIME: 8/16/2019 10:53:52 AM (UTC-5)
CORR. FILE: 
TEMPCAL: TCALZERO.TMX
LABORATORY: Mineral Physics
OPERATOR: PAG
REMARK: bare
SAMPLE: fmt001A
SAMPLE LENGTH /mm: 11.19
MATERIAL: sapphire stnd
MEASMODE: Standard Expansion
PURGE GAS 1: ARGON
FLOW RATE 1 /(ml/min): 75
M.RANGE /�m: 500
CORR. CODE: 10
RANGE: 20.0�C/3.0(K/min)/990.0�C
SEGMENT: S1/1
SEG. 1: 20.0�C/3.0(K/min)/990.0�C

Note: data/14.1mm-083019/moon0p2s2r2-15mm-102719c.txt
EXPORTTYPE: DATA ALL
FILE: moonstonS2p2ru2.ngb-sle
FORMAT: NETZSCH5
FTYPE: ANSI
IDENTITY: fmu1 piece2
DECIMAL: POINT
SEPARATOR: COMMA
MTYPE: DIL
INSTRUMENT: NETZSCH DIL 402C
PROJECT: feldspar
DATE/TIME: 10/27/2019 12:49:23 PM (UTC-5)
CORR. FILE: 
TEMPCAL: TCALZERO.TMX
LABORATORY: Mineral Physics
OPERATOR: PAG
REMARK: bare
SAMPLE: moonstone
SAMPLE LENGTH /mm: 14.99
MATERIAL: sapphire stnd
MEASMODE: Standard Expansion
PURGE GAS 1: ARGON
FLOW RATE 1 /(ml/min): 75
M.RANGE /µm: 500
CORR. CODE: 10
RANGE: 20.0°C/3.0(K/min)/770.0°C
SEGMENT: S1/1
SEG. 1: 20.0°C/3.0(K/min)/770.0°C

Note: data/14.1mm-083019/moon000s1r1-15mm-091219c.txt
EXPORTTYPE: DATA ALL
FILE: moonstoneS1.ngb-sle
FORMAT: NETZSCH5
FTYPE: ANSI
IDENTITY: moonstone
DECIMAL: POINT
SEPARATOR: COMMA
MTYPE: DIL
INSTRUMENT: NETZSCH DIL 402C
PROJECT: feldspar
DATE/TIME: 9/12/2019 10:20:17 AM (UTC-5)
CORR. FILE: 
TEMPCAL: TCALZERO.TMX
LABORATORY: Mineral Physics
OPERATOR: PAG
REMARK: bare
SAMPLE: fmu-box1
SAMPLE LENGTH /mm: 14.978
MATERIAL: sapphire stnd
MEASMODE: Standard Expansion
PURGE GAS 1: ARGON
FLOW RATE 1 /(ml/min): 75
M.RANGE /µm: 500
CORR. CODE: 010
RANGE: 20.0°C/3.0(K/min)/900.0°C
SEGMENT: S1/1
SEG. 1: 20.0°C/3.0(K/min)/900.0°C

Note: data/14.1mm-083019/moon000s1r2-15mm-091519c.txt
EXPORTTYPE: DATA ALL
FILE: moonstoneS1r2.ngb-sle
FORMAT: NETZSCH5
FTYPE: ANSI
IDENTITY: moonstone 1 rerun
DECIMAL: POINT
SEPARATOR: COMMA
MTYPE: DIL
INSTRUMENT: NETZSCH DIL 402C
PROJECT: feldspar
DATE/TIME: 9/15/2019 3:17:57 PM (UTC-5)
CORR. FILE: 
TEMPCAL: TCALZERO.TMX
LABORATORY: Mineral Physics
OPERATOR: PAG
REMARK: bare
SAMPLE: moonstone 1 heated
SAMPLE LENGTH /mm: 14.978
MATERIAL: sapphire stnd
MEASMODE: Standard Expansion
PURGE GAS 1: ARGON
FLOW RATE 1 /(ml/min): 75
M.RANGE /µm: 500
CORR. CODE: 010
RANGE: 20.0°C/5.0(K/min)/425.0°C
SEGMENT: S1/1
SEG. 1: 20.0°C/5.0(K/min)/425.0°C

Note: data/14.1mm-083019/moon000s2r1-13c.txt
EXPORTTYPE: DATA ALL
FILE: moonstoneS2r1.ngb-sle
FORMAT: NETZSCH5
FTYPE: ANSI
IDENTITY: moonstone 2
DECIMAL: POINT
SEPARATOR: COMMA
MTYPE: DIL
INSTRUMENT: NETZSCH DIL 402C
PROJECT: feldspar
DATE/TIME: 9/13/2019 9:47:34 AM (UTC-5)
CORR. FILE: 
TEMPCAL: TCALZERO.TMX
LABORATORY: Mineral Physics
OPERATOR: PAG
REMARK: bare
SAMPLE: fmu-box2
SAMPLE LENGTH /mm: 13.568
MATERIAL: sapphire stnd
MEASMODE: Standard Expansion
PURGE GAS 1: ARGON
FLOW RATE 1 /(ml/min): 75
M.RANGE /µm: 500
CORR. CODE: 010
RANGE: 20.0°C/3.0(K/min)/850.0°C
SEGMENT: S1/1
SEG. 1: 20.0°C/3.0(K/min)/850.0°C

Note: data/14.1mm-083019/moon000s2r2-13c.txt
EXPORTTYPE: DATA ALL
FILE: moonstoneS2run2.ngb-sle
FORMAT: NETZSCH5
FTYPE: ANSI
IDENTITY: moonstone #2 rerun
DECIMAL: POINT
SEPARATOR: COMMA
MTYPE: DIL
INSTRUMENT: NETZSCH DIL 402C
PROJECT: feldspar
DATE/TIME: 9/13/2019 3:41:45 PM (UTC-5)
CORR. FILE: 
TEMPCAL: TCALZERO.TMX
LABORATORY: Mineral Physics
OPERATOR: PAG
REMARK: bare
SAMPLE: fmu-box2
SAMPLE LENGTH /mm: 13.568
MATERIAL: sapphire stnd
MEASMODE: Standard Expansion
PURGE GAS 1: ARGON
FLOW RATE 1 /(ml/min): 75
M.RANGE /µm: 500
CORR. CODE: 010
RANGE: 20.0°C/5.0(K/min)/430.0°C
SEGMENT: S1/1
SEG. 1: 20.0°C/5.0(K/min)/430.0°C

Note: README.md
# thermal-expansion
Calculates linear and volume alphas from dilatometer data (Netzsch DIL-402c) by curve fitting

File: anorShaws1r1-13mm-090119.csv
#EXPORTTYPE:           ,DATA ALL
#FILE:                 ,anorthShawS1R1.ngb-sle
#FORMAT:               ,NETZSCH5
#FTYPE:                ,ANSI
#IDENTITY:             ,anorthosite shawmere
#DECIMAL:              ,POINT
#SEPARATOR:            ,COMMA
#MTYPE:                ,DIL
#INSTRUMENT:           ,NETZSCH DIL 402C
#PROJECT:              ,feldspar
#DATE/TIME:            ,9/1/2019 1:09:40 PM (UTC-5)
#CORR. FILE:           ,
#TEMPCAL:              ,TCALZERO.TMX
#LABORATORY:           ,Mineral Physics
#OPERATOR:             ,PAG
#REMARK:               ,bare, norm start, for bytown and rocks, shawmere thin fresh
#SAMPLE:               ,shawmere fresh
#SAMPLE LENGTH /mm:    ,12.99
#MATERIAL:             ,sapphire stnd
#MEASMODE:             ,Standard Expansion
#PURGE GAS 1:          ,ARGON
#FLOW RATE 1 /(ml/min):,75
#M.RANGE /µm:          ,500
#CORR. CODE:           ,010
#RANGE:                ,20.0°C/3.0(K/min)/1000.0°C
#SEGMENT:              ,S1/1
#SEG. 1:               ,20.0°C/3.0(K/min)/1000.0°C

##Temp./°C,Time/min,dL/Lo,Alpha/(1/K)
 23.02700,  0.00000, 2.7601e-005,-1.0043e-006
 27.02700,  6.01126,-2.0373e-005,-6.6302e-006
 31.02700,  6.97289,-3.5431e-005,-1.1483e-006
 35.02700,  7.81980,-3.6082e-005, 1.4167e-006
 39.02700,  8.64686,-2.4220e-005, 4.4370e-006
 43.02700,  9.46945,-4.5631e-006, 5.4528e-006
 47.02700, 10.28337, 1.8088e-005, 6.0855e-006
 51.02700, 11.07539, 4.3927e-005, 6.4861e-006
 55.02700, 11.84460, 7.1454e-005, 7.0561e-006
 59.02700, 12.60249, 1.0073e-004, 7.5227e-006
 63.02700, 13.35290, 1.3300e-004, 8.5019e-006
 67.02700, 14.10229, 1.6786e-004, 9.1000e-006
 71.02700, 14.85758, 2.0473e-004, 9.6335e-006
 75.02700, 15.61706, 2.4278e-004, 1.0062e-005
 79.02700, 16.38126, 2.8277e-004, 9.9530e-006
 83.02700, 17.14882, 3.2334e-004, 1.0541e-005
 87.02700, 17.92189, 3.6566e-004, 1.0768e-005
 91.02700, 18.69963, 4.0860e-004, 1.0787e-005
 95.02700, 19.48526, 4.5221e-004, 1.0712e-005
 99.02700, 20.27956, 4.9640e-004, 1.1364e-005
103.027, 21.07751, 5.4153e-004, 1.1068e-005
107.027, 21.88226, 5.8655e-004, 1.1494e-005
111.027, 22.69335, 6.3222e-004, 1.1386e-005
115.027, 23.50716, 6.7867e-004, 1.1596e-005
119.027, 24.32800, 7.2506e-004, 1.1709e-005
123.027, 25.15151, 7.7202e-004, 1.1815e-005
127.027, 25.98111, 8.1958e-004, 1.2215e-005
131.027, 26.81742, 8.6707e-004, 1.1954e-005
135.027, 27.65747, 9.1539e-004, 1.1983e-005
139.027, 28.50148, 9.6408e-004, 1.2190e-005
143.027, 29.34750, 1.0138e-003, 1.2391e-005
147.027, 30.19986, 1.0634e-003, 1.2499e-005
151.027, 31.05462, 1.1134e-003, 1.2650e-005
155.027, 31.91400, 1.1639e-003, 1.2769e-005
159.027, 32.77830, 1.2144e-003, 1.2714e-005
163.027, 33.64630, 1.2653e-003, 1.2875e-005
167.027, 34.52131, 1.3170e-003, 1.2837e-005
171.027, 35.39479, 1.3690e-003, 1.2706e-005
175.027, 36.27601, 1.4206e-003, 1.2828e-005
179.027, 37.15800, 1.4732e-003, 1.3479e-005
183.027, 38.04721, 1.5262e-003, 1.3019e-005
187.027, 38.94164, 1.5784e-003, 1.3386e-005
191.027, 39.83776, 1.6317e-003, 1.2905e-005
195.027, 40.73807, 1.6843e-003, 1.3237e-005
199.027, 41.64434, 1.7378e-003, 1.3806e-005
203.027, 42.55631, 1.7924e-003, 1.3158e-005
207.027, 43.47898, 1.8476e-003, 1.3698e-005
211.027, 44.41066, 1.9028e-003, 1.3687e-005
215.027, 45.34507, 1.9561e-003, 1.3083e-005
219.027, 46.26394, 2.0075e-003, 1.2416e-005
223.027, 47.16716, 2.0571e-003, 1.2422e-005
227.027, 48.06297, 2.1073e-003, 1.2466e-005
231.027, 48.95833, 2.1590e-003, 1.3157e-005
235.027, 49.86214, 2.2119e-003, 1.3684e-005
239.027, 50.78047, 2.2662e-003, 1.3689e-005
243.027, 51.70895, 2.3206e-003, 1.3483e-005
247.027, 52.64826, 2.3748e-003, 1.3488e-005
251.027, 53.59455, 2.4285e-003, 1.3617e-005
255.027, 54.55255, 2.4827e-003, 1.3121e-005
259.027, 55.52531, 2.5373e-003, 1.3642e-005
263.027, 56.50554, 2.5921e-003, 1.3960e-005
267.027, 57.49070, 2.6475e-003, 1.3510e-005
271.027, 58.48788, 2.7021e-003, 1.3629e-005
275.027, 59.49161, 2.7566e-003, 1.4001e-005
279.027, 60.50167, 2.8109e-003, 1.3754e-005
283.027, 61.51450, 2.8645e-003, 1.3869e-005
287.027, 62.53378, 2.9184e-003, 1.3699e-005
291.027, 63.55948, 2.9717e-003, 1.3526e-005
295.027, 64.59498, 3.0257e-003, 1.3463e-005
299.027, 65.63183, 3.0796e-003, 1.3365e-005
303.027, 66.67271, 3.1332e-003, 1.3356e-005
307.027, 67.71914, 3.1860e-003, 1.3437e-005
311.027, 68.76990, 3.2390e-003, 1.3677e-005
315.027, 69.82675, 3.2932e-003, 1.3512e-005
319.027, 70.88661, 3.3465e-003, 1.3528e-005
323.027, 71.95505, 3.4001e-003, 1.3256e-005
327.027, 73.02587, 3.4540e-003, 1.3790e-005
331.027, 74.10367, 3.5079e-003, 1.3516e-005
335.027, 75.18520, 3.5621e-003, 1.2866e-005
339.027, 76.26928, 3.6152e-003, 1.3545e-005
343.027, 77.35974, 3.6687e-003, 1.3170e-005
347.027, 78.45595, 3.7228e-003, 1.4015e-005
351.027, 79.55656, 3.7767e-003, 1.3573e-005
355.027, 80.66270, 3.8300e-003, 1.3615e-005
359.027, 81.77357, 3.8836e-003, 1.4040e-005
363.027, 82.89018, 3.9376e-003, 1.3972e-005
367.027, 84.01200, 3.9999e-003, 1.4328e-005
371.027, 85.13624, 4.0552e-003, 1.3977e-005
375.027, 86.26596, 4.1104e-003, 1.3977e-005
379.027, 87.40489, 4.1655e-003, 1.4351e-005
383.027, 88.54942, 4.2209e-003, 1.3721e-005
387.027, 89.69622, 4.2763e-003, 1.4097e-005
391.027, 90.84773, 4.3318e-003, 1.4319e-005
395.027, 92.00668, 4.3872e-003, 1.4377e-005
399.027, 93.17236, 4.4426e-003, 1.3881e-005
403.027, 94.33986, 4.4983e-003, 1.3920e-005
407.027, 95.51042, 4.5538e-003, 1.4255e-005
411.027, 96.68900, 4.6095e-003, 1.3830e-005
415.027, 97.87531, 4.6649e-003, 1.4079e-005
419.027, 99.06659, 4.7211e-003, 1.4267e-005
423.027,100.26, 4.7775e-003, 1.4485e-005
427.027,101.459, 4.8343e-003, 1.3671e-005
431.027,102.661, 4.8913e-003, 1.3924e-005
435.027,103.88, 4.9502e-003, 1.5070e-005
439.027,105.118, 5.0079e-003, 1.3865e-005
443.027,106.332, 5.0620e-003, 1.2824e-005
447.027,107.509, 5.1156e-003, 1.3314e-005
451.027,108.684, 5.1703e-003, 1.3563e-005
455.027,109.874, 5.2262e-003, 1.3557e-005
459.027,111.083, 5.2829e-003, 1.4261e-005
463.027,112.302, 5.3384e-003, 1.4170e-005
467.027,113.543, 5.3949e-003, 1.3947e-005
471.027,114.789, 5.4494e-003, 1.3576e-005
475.027,116.046, 5.5043e-003, 1.4043e-005
479.027,117.317, 5.5610e-003, 1.4331e-005
483.027,118.595, 5.6175e-003, 1.3982e-005
487.027,119.876, 5.6741e-003, 1.4574e-005
491.027,121.163, 5.7307e-003, 1.4470e-005
495.027,122.455, 5.7881e-003, 1.4215e-005
499.027,123.751, 5.8445e-003, 1.4081e-005
503.027,125.052, 5.9019e-003, 1.4757e-005
507.027,126.357, 5.9590e-003, 1.4861e-005
511.027,127.667, 6.0160e-003, 1.3985e-005
515.027,128.981, 6.0733e-003, 1.3991e-005
519.027,130.297, 6.1316e-003, 1.4362e-005
523.027,131.621, 6.1890e-003, 1.4606e-005
527.027,132.946, 6.2461e-003, 1.4673e-005
531.027,134.275, 6.3044e-003, 1.4200e-005
535.027,135.61, 6.3628e-003, 1.4703e-005
539.027,136.949, 6.4208e-003, 1.4525e-005
543.027,138.293, 6.4792e-003, 1.4542e-005
547.027,139.64, 6.5379e-003, 1.4925e-005
551.027,140.994, 6.5957e-003, 1.4536e-005
555.027,142.346, 6.6539e-003, 1.4523e-005
559.027,143.706, 6.7138e-003, 1.5117e-005
563.027,145.084, 6.7758e-003, 1.5275e-005
567.027,146.479, 6.8356e-003, 1.4180e-005
571.027,147.841, 6.8924e-003, 1.3719e-005
575.027,149.163, 6.9488e-003, 1.4375e-005
579.027,150.487, 7.0065e-003, 1.4287e-005
583.027,151.829, 7.0652e-003, 1.5026e-005
587.027,153.186, 7.1243e-003, 1.4560e-005
591.027,154.585, 7.1837e-003, 1.4848e-005
595.027,155.978, 7.2451e-003, 1.5855e-005
[...]
603.027,158.827, 7.3686e-003, 1.4962e-005
607.027,160.195, 7.4257e-003, 1.4275e-005
611.027,161.537, 7.4842e-003, 1.5037e-005
615.027,162.907, 7.5451e-003, 1.5557e-005
619.027,164.294, 7.6065e-003, 1.5051e-005
623.027,165.696, 7.6680e-003, 1.5408e-005
627.027,167.11, 7.7298e-003, 1.6043e-005
631.027,168.531, 7.7926e-003, 1.5821e-005
635.027,169.958, 7.8555e-003, 1.5435e-005
639.027,171.394, 7.9180e-003, 1.5226e-005
643.027,172.837, 7.9817e-003, 1.5792e-005
647.027,174.279, 8.0453e-003, 1.6352e-005
651.027,175.729, 8.1086e-003, 1.5856e-005
655.027,177.186, 8.1726e-003, 1.6109e-005
659.027,178.648, 8.2356e-003, 1.5723e-005
663.027,180.103, 8.2996e-003, 1.5786e-005
667.027,181.568, 8.3636e-003, 1.5754e-005
671.027,183.045, 8.4279e-003, 1.6314e-005
675.027,184.543, 8.4946e-003, 1.6265e-005
679.027,186.039, 8.5585e-003, 1.4809e-005
683.027,187.492, 8.6197e-003, 1.5356e-005
687.027,188.926, 8.6823e-003, 1.5342e-005
691.027,190.379, 8.7450e-003, 1.5450e-005
695.027,191.846, 8.8074e-003, 1.5438e-005
699.027,193.326, 8.8699e-003, 1.5231e-005
703.027,194.827, 8.9321e-003, 1.5774e-005
707.027,196.338, 8.9948e-003, 1.5355e-005
711.027,197.865, 9.0572e-003, 1.5612e-005
715.027,199.392, 9.1193e-003, 1.5097e-005
719.027,200.921, 9.1816e-003, 1.5463e-005
723.027,202.451, 9.2435e-003, 1.4791e-005
727.027,203.983, 9.3054e-003, 1.5278e-005
731.027,205.512, 9.3675e-003, 1.6167e-005
735.027,207.048, 9.4294e-003, 1.5930e-005
739.027,208.574, 9.4913e-003, 1.5993e-005
743.027,210.123, 9.5550e-003, 1.6306e-005
747.027,211.706, 9.6192e-003, 1.6324e-005
751.027,213.243, 9.6814e-003, 1.5034e-005
755.027,214.736, 9.7425e-003, 1.5717e-005
759.027,216.233, 9.8045e-003, 1.5042e-005
763.027,217.732, 9.8668e-003, 1.6025e-005
767.027,219.248, 9.9300e-003, 1.5887e-005
771.027,220.776, 9.9935e-003, 1.5836e-005
775.027,222.306, 1.0057e-002, 1.5607e-005
779.027,223.844, 1.0121e-002, 1.6289e-005
783.027,225.394, 1.0184e-002, 1.5726e-005
787.027,226.944, 1.0249e-002, 1.6448e-005
791.027,228.498, 1.0313e-002, 1.5765e-005
795.027,230.079, 1.0378e-002, 1.5902e-005
799.027,231.666, 1.0443e-002, 1.6565e-005
803.027,233.309, 1.0510e-002, 1.7111e-005
807.027,234.976, 1.0577e-002, 1.5921e-005
811.027,236.605, 1.0644e-002, 1.6696e-005
815.027,238.224, 1.0709e-002, 1.6317e-005
819.027,239.791, 1.0774e-002, 1.6115e-005
823.027,241.351, 1.0840e-002, 1.6595e-005
827.027,242.92, 1.0906e-002, 1.6507e-005
831.027,244.488, 1.0973e-002, 1.7538e-005
835.027,246.05, 1.1041e-002, 1.7359e-005
839.027,247.631, 1.1110e-002, 1.7161e-005
843.027,249.216, 1.1179e-002, 1.7998e-005
847.027,250.792, 1.1251e-002, 1.8483e-005
851.027,252.346, 1.1327e-002, 1.9051e-005
855.027,253.899, 1.1405e-002, 1.9154e-005
859.027,255.448, 1.1486e-002, 2.0418e-005
863.027,257.004, 1.1573e-002, 2.2895e-005
867.027,258.586, 1.1664e-002, 2.2602e-005
871.027,260.156, 1.1753e-002, 2.2262e-005
875.027,261.681, 1.1841e-002, 2.1703e-005
879.027,263.19, 1.1930e-002, 2.3483e-005
883.027,264.691, 1.2022e-002, 2.3283e-005
887.027,266.202, 1.2118e-002, 2.4273e-005
891.027,267.717, 1.2222e-002, 2.6957e-005
895.027,269.236, 1.2334e-002, 2.8973e-005
899.027,270.747, 1.2459e-002, 3.4015e-005
903.027,272.267, 1.2609e-002, 3.9991e-005
907.027,273.789, 1.2787e-002, 4.8923e-005
911.027,275.322, 1.2998e-002, 5.7229e-005
915.027,276.854, 1.3247e-002, 6.7299e-005
919.027,278.417, 1.3533e-002, 7.5287e-005
923.027,280.034, 1.3843e-002, 8.1901e-005
927.027,281.641, 1.4179e-002, 8.8494e-005
931.027,283.25, 1.4555e-002, 9.4962e-005
935.027,284.953, 1.4973e-002, 1.1528e-004
939.027,287.142, 1.5541e-002, 1.2391e-004
943.027,288.766, 1.5993e-002, 1.2740e-004
946.027,290.045, 1.6374e-002, 1.2018e-004