Folder: thermal-expansion/data/14.1mm-102218

Note: data/14.1mm-102218/ExpDat_sapph14c.txt
EXPORTTYPE: DATA ALL
FILE: sapph14mm1022218.ngb-cle
FORMAT: NETZSCH5
FTYPE: ANSI
IDENTITY: saph 14
DECIMAL: POINT
SEPARATOR: COMMA
MTYPE: DIL
INSTRUMENT: NETZSCH DIL 402C
PROJECT: morb
DATE/TIME: 10/22/2018 9:54:27 AM (UTC-5)
CORR. FILE: 
TEMPCAL: TCALZERO.TMX
LABORATORY: min phys
OPERATOR: amh
REMARK: bare
SAMPLE: sapphire stnd
SAMPLE LENGTH /mm: 14.059
MATERIAL: sapphire stnd
MEASMODE: Standard Expansion
PURGE GAS 1: ARGON
FLOW RATE 1 /(ml/min): 75
M.RANGE /µm: 500
CORR. CODE: 010
RANGE: 20.0°C/3.0(K/min)/1100.0°C
SEGMENT: S1/1
SEG. 1: 20.0°C/3.0(K/min)/1100.0°C

Note: README.md
# thermal-expansion
Calculates linear and volume alphas from dilatometer data (Netzsch DIL-402c) by curve fitting

File: ExpDat_sapph14.1mm1022218.csv
#EXPORTTYPE:           ,DATA ALL
#FILE:                 ,sapph14mm1022218.ngb-cle
#FORMAT:               ,NETZSCH5
#FTYPE:                ,ANSI
#IDENTITY:             ,saph 14
#DECIMAL:              ,POINT
#SEPARATOR:            ,COMMA
#MTYPE:                ,DIL
#INSTRUMENT:           ,NETZSCH DIL 402C
#PROJECT:              ,morb
#DATE/TIME:            ,10/22/2018 9:54:27 AM (UTC-5)
#CORR. FILE:           ,
#TEMPCAL:              ,TCALZERO.TMX
#LABORATORY:           ,min phys
#OPERATOR:             ,amh
#REMARK:               ,bare, norm start, try again
#SAMPLE:               ,sapphire stnd
#SAMPLE LENGTH /mm:    ,14.059
#MATERIAL:             ,sapphire stnd
#MEASMODE:             ,Standard Expansion
#PURGE GAS 1:          ,ARGON
#FLOW RATE 1 /(ml/min):,75
#M.RANGE /µm:          ,500
#CORR. CODE:           ,010
#RANGE:                ,20.0°C/3.0(K/min)/1100.0°C
#SEGMENT:              ,S1/1
#SEG. 1:               ,20.0°C/3.0(K/min)/1100.0°C

##Temp./°C,Time/min,dL/Lo
 21.79600,  0.00000, 1.7087e-005
 21.84100,  0.93167, 2.1036e-005
 21.87500,  1.86333, 2.1831e-005
 21.90900,  2.79500, 2.1593e-005
 22.02600,  3.72667, 1.9780e-005
 22.93400,  4.65833, 1.1413e-005
 25.26600,  5.59000,-1.1109e-006
 28.85300,  6.52167,-5.0265e-006
 33.05600,  7.45333, 7.8080e-006
 37.43400,  8.38500, 3.5317e-005
 41.82700,  9.31667, 7.1451e-005
 46.33700, 10.24833, 1.1192e-004
 51.02000, 11.18000, 1.5686e-004
 55.83500, 12.11167, 2.0569e-004
 60.73300, 13.04333, 2.5802e-004
 65.63700, 13.97500, 3.1425e-004
 70.54200, 14.90667, 3.7381e-004
 75.42800, 15.83833, 4.3438e-004
 80.26200, 16.77000, 4.9558e-004
 85.07300, 17.70167, 5.5751e-004
 89.85300, 18.63333, 6.2010e-004
 94.58800, 19.56500, 6.8295e-004
 99.28700, 20.49667, 7.4691e-004
103.924, 21.42833, 8.1019e-004
108.534, 22.36000, 8.7316e-004
113.121, 23.29167, 9.3674e-004
117.676, 24.22333, 1.0014e-003
122.202, 25.15500, 1.0647e-003
126.704, 26.08667, 1.1287e-003
131.164, 27.01833, 1.1918e-003
135.607, 27.95000, 1.2567e-003
140.052, 28.88167, 1.3210e-003
144.427, 29.81333, 1.3842e-003
148.799, 30.74500, 1.4471e-003
153.162, 31.67667, 1.5108e-003
157.498, 32.60833, 1.5738e-003
161.81, 33.54000, 1.6373e-003
166.099, 34.47167, 1.6996e-003
170.368, 35.40333, 1.7622e-003
174.608, 36.33500, 1.8250e-003
178.843, 37.26667, 1.8879e-003
183.05, 38.19833, 1.9505e-003
187.224, 39.13000, 2.0123e-003
191.397, 40.06167, 2.0745e-003
195.546, 40.99333, 2.1364e-003
199.674, 41.92500, 2.1978e-003
203.794, 42.85667, 2.2599e-003
207.874, 43.78833, 2.3207e-003
211.936, 44.72000, 2.3819e-003
215.972, 45.65167, 2.4422e-003
220.001, 46.58333, 2.5022e-003
224.005, 47.51500, 2.5623e-003
227.994, 48.44667, 2.6225e-003
231.95, 49.37833, 2.6824e-003
235.895, 50.31000, 2.7429e-003
239.799, 51.24167, 2.8031e-003
243.669, 52.17333, 2.8629e-003
247.516, 53.10500, 2.9219e-003
251.396, 54.03667, 2.9805e-003
255.301, 54.96833, 3.0386e-003
259.227, 55.90000, 3.0962e-003
263.164, 56.83167, 3.1537e-003
267.093, 57.76333, 3.2121e-003
271.004, 58.69500, 3.2705e-003
274.872, 59.62667, 3.3287e-003
278.695, 60.55833, 3.3867e-003
282.488, 61.49000, 3.4443e-003
286.247, 62.42167, 3.5015e-003
289.979, 63.35333, 3.5580e-003
293.67, 64.28500, 3.6141e-003
297.335, 65.21667, 3.6700e-003
300.979, 66.14833, 3.7252e-003
304.596, 67.08000, 3.7802e-003
308.197, 68.01167, 3.8348e-003
311.78, 68.94333, 3.8889e-003
315.335, 69.87500, 3.9428e-003
318.869, 70.80667, 3.9961e-003
322.376, 71.73833, 4.0494e-003
325.886, 72.67000, 4.1026e-003
329.37, 73.60167, 4.1551e-003
332.839, 74.53333, 4.2077e-003
336.283, 75.46500, 4.2600e-003
339.726, 76.39667, 4.3119e-003
343.148, 77.32833, 4.3635e-003
346.558, 78.26000, 4.4150e-003
349.956, 79.19167, 4.4663e-003
353.345, 80.12333, 4.5173e-003
356.71, 81.05500, 4.5683e-003
360.062, 81.98667, 4.6189e-003
363.394, 82.91833, 4.6689e-003
366.735, 83.85000, 4.7198e-003
370.041, 84.78167, 4.7699e-003
373.34, 85.71333, 4.8203e-003
376.614, 86.64500, 4.8699e-003
379.889, 87.57667, 4.9192e-003
383.169, 88.50833, 4.9694e-003
386.414, 89.44000, 5.0190e-003
389.644, 90.37167, 5.0680e-003
392.859, 91.30333, 5.1167e-003
396.075, 92.23500, 5.1659e-003
399.278, 93.16667, 5.2142e-003
402.465, 94.09833, 5.2629e-003
405.651, 95.03000, 5.3117e-003
408.816, 95.96167, 5.3597e-003
411.978, 96.89333, 5.4079e-003
415.121, 97.82500, 5.4558e-003
418.249, 98.75667, 5.5034e-003
421.382, 99.68833, 5.5509e-003
424.507,100.62, 5.5985e-003
427.619,101.552, 5.6466e-003
430.707,102.483, 5.6936e-003
433.795,103.415, 5.7407e-003
436.861,104.347, 5.7877e-003
439.924,105.278, 5.8347e-003
442.977,106.21, 5.8815e-003
446.025,107.142, 5.9281e-003
449.067,108.073, 5.9749e-003
452.093,109.005, 6.0219e-003
455.107,109.937, 6.0690e-003
458.084,110.868, 6.1154e-003
461.052,111.8, 6.1621e-003
464.036,112.732, 6.2074e-003
467.056,113.663, 6.2525e-003
470.109,114.595, 6.2979e-003
473.156,115.527, 6.3438e-003
476.184,116.458, 6.3905e-003
479.195,117.39, 6.4356e-003
482.201,118.322, 6.4813e-003
485.17,119.253, 6.5269e-003
488.124,120.185, 6.5726e-003
491.062,121.117, 6.6169e-003
494.003,122.048, 6.6617e-003
496.928,122.98, 6.7067e-003
499.837,123.912, 6.7514e-003
502.735,124.843, 6.7963e-003
505.606,125.775, 6.8394e-003
508.476,126.707, 6.8836e-003
511.337,127.638, 6.9275e-003
514.194,128.57, 6.9711e-003
517.049,129.502, 7.0149e-003
519.882,130.433, 7.0577e-003
522.712,131.365, 7.1008e-003
525.552,132.297, 7.1444e-003
528.37,133.228, 7.1879e-003
531.186,134.16, 7.2315e-003
533.99,135.092, 7.2743e-003
536.793,136.023, 7.3168e-003
539.581,136.955, 7.3600e-003
542.371,137.887, 7.4031e-003
545.159,138.818, 7.4462e-003
547.918,139.75, 7.4888e-003
550.688,140.682, 7.5315e-003
553.46,141.613, 7.5737e-003
556.218,142.545, 7.6160e-003
558.977,143.477, 7.6586e-003
561.708,144.408, 7.7009e-003
564.436,145.34, 7.7432e-003
567.179,146.272, 7.7853e-003
569.903,147.203, 7.8264e-003
572.612,148.135, 7.8684e-003
575.315,149.067, 7.9108e-003
577.995,149.998, 7.9536e-003
580.661,150.93, 7.9955e-003
583.349,151.862, 8.0370e-003
586.038,152.793, 8.0780e-003
588.776,153.725, 8.1183e-003
591.514,154.657, 8.1603e-003
594.237,155.588, 8.2022e-003
596.956,156.52, 8.2439e-003
599.667,157.452, 8.2858e-003
602.353,158.383, 8.3270e-003
605.033,159.315, 8.3689e-003
607.713,160.247, 8.4093e-003
610.369,161.178, 8.4500e-003
613.031,162.11, 8.4915e-003
615.68,163.042, 8.5327e-003
618.319,163.973, 8.5733e-003
620.962,164.905, 8.6145e-003
623.58,165.837, 8.6551e-003
626.2,166.768, 8.6946e-003
628.815,167.7, 8.7352e-003
631.434,168.632, 8.7760e-003
634.036,169.563, 8.8168e-003
636.647,170.495, 8.8573e-003
639.25,171.427, 8.8977e-003
641.831,172.358, 8.9383e-003
644.416,173.29, 8.9773e-003
646.988,174.222, 9.0174e-003
649.567,175.153, 9.0578e-003
652.143,176.085, 9.0977e-003
654.712,177.017, 9.1376e-003
657.279,177.948, 9.1777e-003
659.848,178.88, 9.2179e-003
662.393,179.812, 9.2572e-003
664.919,180.743, 9.2964e-003
667.443,181.675, 9.3364e-003
669.944,182.607, 9.3766e-003
672.462,183.538, 9.4164e-003
674.98,184.47, 9.4555e-003
677.529,185.402, 9.4952e-003
680.093,186.333, 9.5348e-003
682.643,187.265, 9.5736e-003
685.177,188.197, 9.6126e-003
687.729,189.128, 9.6520e-003
690.256,190.06, 9.6921e-003
692.755,190.992, 9.7320e-003
695.231,191.923, 9.7706e-003
697.696,192.855, 9.8097e-003
700.138,193.787, 9.8484e-003
702.585,194.718, 9.8867e-003
705.029,195.65, 9.9237e-003
707.473,196.582, 9.9617e-003
709.898,197.513, 1.0000e-002
712.347,198.445, 1.0039e-002
714.782,199.377, 1.0077e-002
717.201,200.308, 1.0115e-002
719.639,201.24, 1.0153e-002
722.075,202.172, 1.0191e-002
724.503,203.103, 1.0229e-002
726.937,204.035, 1.0267e-002
729.356,204.967, 1.0304e-002
731.771,205.898, 1.0342e-002
734.187,206.83, 1.0381e-002
736.613,207.762, 1.0419e-002
739.025,208.693, 1.0457e-002
741.424,209.625, 1.0496e-002
743.811,210.557, 1.0534e-002
746.166,211.488, 1.0572e-002
748.549,212.42, 1.0610e-002
750.957,213.352, 1.0647e-002
753.387,214.283, 1.0685e-002
755.825,215.215, 1.0723e-002
758.281,216.147, 1.0761e-002
760.7,217.078, 1.0800e-002
763.132,218.01, 1.0838e-002
765.568,218.942, 1.0876e-002
767.998,219.873, 1.0914e-002
770.422,220.805, 1.0953e-002
772.838,221.737, 1.0991e-002
775.169,222.668, 1.1029e-002
777.467,223.6, 1.1065e-002
779.783,224.532, 1.1102e-002
782.067,225.463, 1.1138e-002
784.35,226.395, 1.1175e-002
786.633,227.327, 1.1212e-002
788.916,228.258, 1.1249e-002
791.207,229.19, 1.1286e-002
793.49,230.122, 1.1323e-002
795.767,231.053, 1.1359e-002
798.052,231.985, 1.1396e-002
800.349,232.917, 1.1432e-002
802.65,233.848, 1.1469e-002
804.94,234.78, 1.1506e-002
807.215,235.712, 1.1543e-002
809.496,236.643, 1.1578e-002
811.788,237.575, 1.1615e-002
814.098,238.507, 1.1652e-002
816.438,239.438, 1.1688e-002
818.817,240.37, 1.1726e-002
821.171,241.302, 1.1763e-002
823.554,242.233, 1.1800e-002
825.934,243.165, 1.1838e-002
828.314,244.097, 1.1876e-002
830.702,245.028, 1.1913e-002
833.121,245.96, 1.1951e-002
835.53,246.892, 1.1989e-002
837.946,247.823, 1.2027e-002
840.385,248.755, 1.2066e-002
842.806,249.687, 1.2104e-002
845.25,250.618, 1.2143e-002
847.687,251.55, 1.2182e-002
850.129,252.482, 1.2220e-002
852.559,253.413, 1.2257e-002
855.008,254.345, 1.2296e-002
857.464,255.277, 1.2335e-002
859.913,256.208, 1.2374e-002
862.368,257.14, 1.2413e-002
864.817,258.072, 1.2452e-002
867.259,259.003, 1.2491e-002
869.697,259.935, 1.2531e-002
872.131,260.867, 1.2571e-002
874.551,261.798, 1.2610e-002
876.996,262.73, 1.2649e-002
879.464,263.662, 1.2688e-002
881.939,264.593, 1.2728e-002
884.397,265.525, 1.2767e-002
886.848,266.457, 1.2807e-002
889.298,267.388, 1.2846e-002
891.743,268.32, 1.2885e-002
894.188,269.252, 1.2924e-002
896.626,270.183, 1.2964e-002
899.048,271.115, 1.3003e-002
901.472,272.047, 1.3041e-002
903.759,272.978, 1.3079e-002
905.825,273.91, 1.3115e-002
906.884,274.365, 1.3131e-002