Folder: thermal-expansion/data/16.6mm-091419

Note: data/16.6mm-091419/byto000sA1r1-16mm-091519c.txt
EXPORTTYPE: DATA ALL
FILE: bytownA1r1.ngb-sle
FORMAT: NETZSCH5
FTYPE: ANSI
IDENTITY: bytownite#3
DECIMAL: POINT
SEPARATOR: COMMA
MTYPE: DIL
INSTRUMENT: NETZSCH DIL 402C
PROJECT: feldspar
DATE/TIME: 9/15/2019 9:30:55 AM (UTC-5)
CORR. FILE: 
TEMPCAL: TCALZERO.TMX
LABORATORY: Mineral Physics
OPERATOR: PAG
REMARK: bare
SAMPLE: bytownite-A
SAMPLE LENGTH /mm: 16.048
MATERIAL: sapphire stnd
MEASMODE: Standard Expansion
PURGE GAS 1: ARGON
FLOW RATE 1 /(ml/min): 75
M.RANGE /µm: 500
CORR. CODE: 010
RANGE: 20.0°C/3.0(K/min)/1200.0°C
SEGMENT: S1/1
SEG. 1: 20.0°C/3.0(K/min)/1200.0°C

Note: data/16.6mm-091419/ExpDat_sapph16c.txt
EXPORTTYPE: DATA ALL
FILE: sapph17mm0914x19.ngb-cle
FORMAT: NETZSCH5
FTYPE: ANSI
IDENTITY: sapph 17
DECIMAL: POINT
SEPARATOR: COMMA
MTYPE: DIL
INSTRUMENT: NETZSCH DIL 402C
PROJECT: feldspar
DATE/TIME: 9/14/2019 9:51:19 AM (UTC-5)
CORR. FILE: 
TEMPCAL: TCALZERO.TMX
LABORATORY: Mineral Physics
OPERATOR: PAG
REMARK: bare
SAMPLE: sapphirre rod
SAMPLE LENGTH /mm: 16.592
MATERIAL: sapphire stnd
MEASMODE: Standard Expansion
PURGE GAS 1: ARGON
FLOW RATE 1 /(ml/min): 75
M.RANGE /µm: 500
CORR. CODE: 010
RANGE: 20.0°C/3.0(K/min)/1240.0°C
SEGMENT: S1/1
SEG. 1: 20.0°C/3.0(K/min)/1240.0°C

Note: data/16.6mm-091419/sanMtT0p2s1r16mm-111418c.txt
EXPORTTYPE: DATA ALL
FILE: sanidMt2P1run1.ngb-sle
FORMAT: NETZSCH5
FTYPE: ANSI
IDENTITY: mt t perp
DECIMAL: POINT
SEPARATOR: COMMA
MTYPE: DIL
INSTRUMENT: NETZSCH DIL 402C
PROJECT: morb
DATE/TIME: 11/14/2018 10:12:25 AM (UTC-6)
CORR. FILE: 
TEMPCAL: TCALZERO.TMX
LABORATORY: min phys
OPERATOR: amh
REMARK: bare
SAMPLE: mt t ortho010
SAMPLE LENGTH /mm: 6.063
MATERIAL: sapphire stnd
MEASMODE: Standard Expansion
PURGE GAS 1: ARGON
FLOW RATE 1 /(ml/min): 75
M.RANGE /µm: 500
CORR. CODE: 010
RANGE: 20.0°C/3.0(K/min)/950.0°C
SEGMENT: S1/1
SEG. 1: 20.0°C/3.0(K/min)/950.0°C

Note: README.md
# thermal-expansion
Calculates linear and volume alphas from dilatometer data (Netzsch DIL-402c) by curve fitting

File: ExpDat_sapph16.6mm0914x19.csv
#EXPORTTYPE:           ,DATA ALL
#FILE:                 ,sapph17mm0914x19.ngb-cle
#FORMAT:               ,NETZSCH5
#FTYPE:                ,ANSI
#IDENTITY:             ,sapph 17
#DECIMAL:              ,POINT
#SEPARATOR:            ,COMMA
#MTYPE:                ,DIL
#INSTRUMENT:           ,NETZSCH DIL 402C
#PROJECT:              ,feldspar
#DATE/TIME:            ,9/14/2019 9:51:19 AM (UTC-5)
#CORR. FILE:           ,
#TEMPCAL:              ,TCALZERO.TMX
#LABORATORY:           ,Mineral Physics
#OPERATOR:             ,PAG
#REMARK:               ,bare, norm start, for bytown and rocks , long stnd, close to thermocouple
#SAMPLE:               ,sapphirre rod
#SAMPLE LENGTH /mm:    ,16.592
#MATERIAL:             ,sapphire stnd
#MEASMODE:             ,Standard Expansion
#PURGE GAS 1:          ,ARGON
#FLOW RATE 1 /(ml/min):,75
#M.RANGE /µm:          ,500
#CORR. CODE:           ,010
#RANGE:                ,20.0°C/3.0(K/min)/1240.0°C
#SEGMENT:              ,S1/1
#SEG. 1:               ,20.0°C/3.0(K/min)/1240.0°C

##Temp./°C,Time/min,dL/Lo
  21.97100,  0.00000,1.8338e-005
  21.99800,  1.10500,2.8709e-005
  22.02000,  2.21000,3.0840e-005
  22.04900,  3.31500,3.0407e-005
  22.51000,  4.42000,2.4284e-005
  24.71200,  5.52500,1.3363e-005
  28.76600,  6.63000,1.3605e-005
  33.78100,  7.73500,3.5410e-005
  39.04200,  8.84000,7.4016e-005
  44.37900,  9.94500,1.2147e-004
  49.91800, 11.05000,1.7389e-004
  55.64700, 12.15500,2.3098e-004
  61.50400, 13.26000,2.9528e-004
  67.38000, 14.36500,3.6523e-004
  73.25000, 15.47000,4.3820e-004
  79.06600, 16.57500,5.1266e-004
  84.82100, 17.68000,5.8825e-004
  90.52000, 18.78500,6.6495e-004
  96.16000, 19.89000,7.4249e-004
 101.753, 20.99500,8.1930e-004
 107.266, 22.10000,8.9602e-004
 112.736, 23.20500,9.7333e-004
 118.183, 24.31000,1.0505e-003
 123.556, 25.41500,1.1269e-003
 128.935, 26.52000,1.2033e-003
 134.247, 27.62500,1.2797e-003
 139.535, 28.73000,1.3552e-003
 144.765, 29.83500,1.4296e-003
 150.003, 30.94000,1.5047e-003
 155.189, 32.04500,1.5786e-003
 160.327, 33.15000,1.6523e-003
 165.455, 34.25500,1.7260e-003
 170.527, 35.36000,1.7987e-003
 175.592, 36.46500,1.8723e-003
 180.607, 37.57000,1.9445e-003
 185.602, 38.67500,2.0168e-003
 190.547, 39.78000,2.0880e-003
 195.496, 40.88500,2.1596e-003
 200.395, 41.99000,2.2304e-003
 205.27, 43.09500,2.3012e-003
 210.11, 44.20000,2.3712e-003
 214.917, 45.30500,2.4413e-003
 219.687, 46.41000,2.5100e-003
 224.429, 47.51500,2.5789e-003
 229.164, 48.62000,2.6466e-003
 233.872, 49.72500,2.7153e-003
 238.529, 50.83000,2.7839e-003
 243.158, 51.93500,2.8512e-003
 247.775, 53.04000,2.9188e-003
 252.348, 54.14500,2.9855e-003
 256.896, 55.25000,3.0526e-003
 261.415, 56.35500,3.1186e-003
 265.917, 57.46000,3.1834e-003
 270.403, 58.56500,3.2493e-003
 274.842, 59.67000,3.3144e-003
 279.239, 60.77500,3.3782e-003
 283.632, 61.88000,3.4413e-003
 287.991, 62.98500,3.5049e-003
 292.334, 64.09000,3.5681e-003
 296.632, 65.19500,3.6312e-003
 300.906, 66.30000,3.6944e-003
 305.179, 67.40500,3.7569e-003
 309.401, 68.51000,3.8182e-003
 313.62, 69.61500,3.8787e-003
 317.807, 70.72000,3.9396e-003
 321.982, 71.82500,4.0001e-003
 326.121, 72.93000,4.0611e-003
 330.235, 74.03500,4.1210e-003
 334.345, 75.14000,4.1800e-003
 338.425, 76.24500,4.2392e-003
 342.475, 77.35000,4.2976e-003
 346.513, 78.45500,4.3576e-003
 350.528, 79.56000,4.4155e-003
 354.525, 80.66500,4.4754e-003
 358.453, 81.77000,4.5345e-003
 362.355, 82.87500,4.5938e-003
 366.304, 83.98000,4.6498e-003
 370.349, 85.08500,4.7059e-003
 374.441, 86.19000,4.7634e-003
 378.506, 87.29500,4.8222e-003
 382.503, 88.40000,4.8807e-003
 386.449, 89.50500,4.9376e-003
 390.349, 90.61000,4.9952e-003
 394.215, 91.71500,5.0515e-003
 398.024, 92.82000,5.1076e-003
 401.813, 93.92500,5.1634e-003
 405.57, 95.03000,5.2178e-003
 409.289, 96.13500,5.2725e-003
 413.005, 97.24000,5.3273e-003
 416.697, 98.34500,5.3814e-003
 420.351, 99.45000,5.4353e-003
 424.004,100.555,5.4877e-003
 427.66,101.66,5.5431e-003
 431.279,102.765,5.5954e-003
 434.878,103.87,5.6479e-003
 438.498,104.975,5.7008e-003
 442.087,106.08,5.7532e-003
 445.666,107.185,5.8060e-003
 449.237,108.29,5.8581e-003
 452.794,109.395,5.9113e-003
 456.338,110.5,5.9639e-003
 459.856,111.605,6.0152e-003
 463.375,112.71,6.0669e-003
 466.884,113.815,6.1201e-003
 470.371,114.92,6.1707e-003
 473.858,116.025,6.2232e-003
 477.313,117.13,6.2747e-003
 480.779,118.235,6.3253e-003
 484.228,119.34,6.3761e-003
 487.648,120.445,6.4272e-003
 491.084,121.55,6.4779e-003
 494.501,122.655,6.5297e-003
 497.893,123.76,6.5805e-003
 501.289,124.865,6.6310e-003
 504.65,125.97,6.6814e-003
 508.028,127.075,6.7309e-003
 511.361,128.18,6.7818e-003
 514.632,129.285,6.8327e-003
 517.926,130.39,6.8833e-003
 521.315,131.495,6.9304e-003
 524.767,132.6,6.9802e-003
 528.193,133.705,7.0311e-003
 531.602,134.81,7.0815e-003
 534.969,135.915,7.1307e-003
 538.314,137.02,7.1811e-003
 541.623,138.125,7.2310e-003
 544.914,139.23,7.2805e-003
 548.183,140.335,7.3280e-003
 551.439,141.44,7.3775e-003
 554.685,142.545,7.4263e-003
 557.92,143.65,7.4743e-003
 561.128,144.755,7.5229e-003
 564.343,145.86,7.5701e-003
 567.555,146.965,7.6190e-003
 570.749,148.07,7.6662e-003
 573.929,149.175,7.7150e-003
 577.11,150.28,7.7617e-003
 580.309,151.385,7.8089e-003
 583.493,152.49,7.8581e-003
 586.622,153.595,7.9065e-003
 589.708,154.7,7.9544e-003
 592.817,155.805,8.0034e-003
 595.995,156.91,8.0492e-003
 599.275,158.015,8.0970e-003
 602.603,159.12,8.1447e-003
 605.9,160.225,8.1948e-003
 609.139,161.33,8.2431e-003
 612.36,162.435,8.2907e-003
 615.532,163.54,8.3390e-003
 618.674,164.645,8.3854e-003
 621.796,165.75,8.4319e-003
 624.913,166.855,8.4800e-003
 627.994,167.96,8.5256e-003
 631.068,169.065,8.5718e-003
 634.142,170.17,8.6177e-003
 637.207,171.275,8.6636e-003
 640.238,172.38,8.7092e-003
 643.266,173.485,8.7559e-003
 646.297,174.59,8.8023e-003
 649.334,175.695,8.8471e-003
 652.361,176.8,8.8926e-003
 655.376,177.905,8.9402e-003
 658.389,179.01,8.9851e-003
 661.404,180.115,9.0310e-003
 664.383,181.22,9.0765e-003
 667.321,182.325,9.1222e-003
 670.229,183.43,9.1685e-003
 673.204,184.535,9.2126e-003
 676.234,185.64,9.2566e-003
 679.296,186.745,9.3036e-003
 682.322,187.85,9.3493e-003
 685.321,188.955,9.3943e-003
 688.296,190.06,9.4402e-003
 691.237,191.165,9.4853e-003
 694.173,192.27,9.5301e-003
 697.109,193.375,9.5755e-003
 700.031,194.48,9.6195e-003
 702.957,195.585,9.6640e-003
 705.858,196.69,9.7082e-003
 708.768,197.795,9.7540e-003
 711.675,198.9,9.7989e-003
 714.562,200.005,9.8424e-003
 717.454,201.11,9.8863e-003
 720.352,202.215,9.9299e-003
 723.252,203.32,9.9738e-003
 726.169,204.425,1.0019e-002
 729.057,205.53,1.0063e-002
 731.953,206.635,1.0109e-002
 734.852,207.74,1.0153e-002
 737.728,208.845,1.0200e-002
 740.546,209.95,1.0243e-002
 743.363,211.055,1.0288e-002
 746.267,212.16,1.0331e-002
 749.213,213.265,1.0376e-002
 752.163,214.37,1.0421e-002
 755.084,215.475,1.0466e-002
 758.003,216.58,1.0510e-002
 760.899,217.685,1.0555e-002
 763.782,218.79,1.0599e-002
 766.652,219.895,1.0644e-002
 769.507,221,1.0686e-002
 772.305,222.105,1.0730e-002
 775.1,223.21,1.0773e-002
 777.839,224.315,1.0817e-002
 780.584,225.42,1.0859e-002
 783.329,226.525,1.0902e-002
 786.051,227.63,1.0946e-002
 788.772,228.735,1.0989e-002
 791.464,229.84,1.1032e-002
 794.214,230.945,1.1072e-002
 796.977,232.05,1.1116e-002
 799.7,233.155,1.1159e-002
 802.383,234.26,1.1203e-002
 805.054,235.365,1.1245e-002
 807.776,236.47,1.1287e-002
 810.504,237.575,1.1327e-002
 813.229,238.68,1.1370e-002
 815.91,239.785,1.1414e-002
 818.636,240.89,1.1453e-002
 821.547,241.995,1.1498e-002
 824.444,243.1,1.1543e-002
 827.251,244.205,1.1587e-002
 830.067,245.31,1.1629e-002
 832.905,246.415,1.1675e-002
 835.752,247.52,1.1718e-002
 838.589,248.625,1.1764e-002
 841.446,249.73,1.1806e-002
 844.3,250.835,1.1851e-002
 847.134,251.94,1.1894e-002
 849.937,253.045,1.1940e-002
 852.808,254.15,1.1985e-002
 855.73,255.255,1.2028e-002
 858.68,256.36,1.2074e-002
 861.624,257.465,1.2119e-002
 864.542,258.57,1.2163e-002
 867.485,259.675,1.2210e-002
 870.407,260.78,1.2256e-002
 873.311,261.885,1.2299e-002
 876.188,262.99,1.2346e-002
 879.06,264.095,1.2388e-002
 881.912,265.2,1.2434e-002
 884.749,266.305,1.2481e-002
 887.555,267.41,1.2523e-002
 889.928,268.515,1.2567e-002
 892.483,269.62,1.2607e-002
 895.231,270.725,1.2651e-002
 898.011,271.83,1.2693e-002
 900.94,272.935,1.2742e-002
 903.654,274.04,1.2788e-002
 906.337,275.145,1.2829e-002
 909.041,276.25,1.2873e-002
 911.69,277.355,1.2915e-002
 914.368,278.46,1.2955e-002
 916.896,279.565,1.2999e-002
 919.028,280.67,1.3039e-002
 921.155,281.775,1.3069e-002
 923.861,282.88,1.3109e-002
 926.741,283.985,1.3153e-002
 929.592,285.09,1.3200e-002
 932.384,286.195,1.3243e-002
 935.176,287.3,1.3288e-002
 937.968,288.405,1.3332e-002
 940.814,289.51,1.3374e-002
 943.795,290.615,1.3420e-002
 946.72,291.72,1.3466e-002
 949.615,292.825,1.3511e-002
 952.548,293.93,1.3557e-002
 955.51,295.035,1.3604e-002
 958.469,296.14,1.3649e-002
 961.378,297.245,1.3696e-002
 964.31,298.35,1.3741e-002
 967.352,299.455,1.3789e-002
 970.325,300.56,1.3838e-002
 973.232,301.665,1.3883e-002
 976.22,302.77,1.3929e-002
 979.472,303.875,1.3980e-002
 982.542,304.98,1.4033e-002
 985.303,306.085,1.4078e-002
 988.172,307.19,1.4123e-002
 991.132,308.295,1.4170e-002
 994.246,309.4,1.4216e-002
 997.318,310.505,1.4265e-002
1000.31,311.61,1.4313e-002
1003.4,312.715,1.4362e-002
1006.38,313.82,1.4411e-002
1009.36,314.925,1.4457e-002
1012.38,316.03,1.4506e-002
1015.34,317.135,1.4551e-002
1018.3,318.24,1.4598e-002
1021.1,319.345,1.4645e-002
1023.76,320.45,1.4688e-002
1026.65,321.555,1.4735e-002
1029.68,322.66,1.4781e-002
1032.8,323.765,1.4832e-002
1035.83,324.87,1.4879e-002
1038.91,325.975,1.4929e-002
1039.16,326.062,1.4932e-002