Folder: thermal-expansion/data/16.6mm-102819

Note: data/16.6mm-102819/byto000sA1r2-16mm-102619c.txt
EXPORTTYPE: DATA ALL
FILE: bytownA1run2.ngb-sle
FORMAT: NETZSCH5
FTYPE: ANSI
IDENTITY: fmb-A
DECIMAL: POINT
SEPARATOR: COMMA
MTYPE: DIL
INSTRUMENT: NETZSCH DIL 402C
PROJECT: feldspar
DATE/TIME: 10/26/2019 10:13:27 AM (UTC-5)
CORR. FILE: 
TEMPCAL: TCALZERO.TMX
LABORATORY: Mineral Physics
OPERATOR: PAG
REMARK: bare
SAMPLE: mexi bytownite
SAMPLE LENGTH /mm: 16.048
MATERIAL: sapphire stnd
MEASMODE: Standard Expansion
PURGE GAS 1: ARGON
FLOW RATE 1 /(ml/min): 75
M.RANGE /µm: 500
CORR. CODE: 10
RANGE: 20.0°C/3.0(K/min)/1180.0°C
SEGMENT: S1/1
SEG. 1: 20.0°C/3.0(K/min)/1180.0°C

Note: data/16.6mm-102819/ExpDat_sapph16c.txt
EXPORTTYPE: DATA ALL
FILE: sapph17mm10282019s.ngb-cle
FORMAT: NETZSCH5
FTYPE: ANSI
IDENTITY: sapphire 17
DECIMAL: POINT
SEPARATOR: COMMA
MTYPE: DIL
INSTRUMENT: NETZSCH DIL 402C
PROJECT: feldspar
DATE/TIME: 10/28/2019 9:58:07 AM (UTC-5)
CORR. FILE: 
TEMPCAL: TCALZERO.TMX
LABORATORY: Mineral Physics
OPERATOR: PAG
REMARK: bare
SAMPLE: sapph standar
SAMPLE LENGTH /mm: 16.592
MATERIAL: sapphire stnd
MEASMODE: Standard Expansion
PURGE GAS 1: ARGON
FLOW RATE 1 /(ml/min): 75
M.RANGE /µm: 500
CORR. CODE: 010
RANGE: 20.0°C/3.0(K/min)/1170.0°C
SEGMENT: S1/1
SEG. 1: 20.0°C/3.0(K/min)/1170.0°C

Note: README.md
# thermal-expansion
Calculates linear and volume alphas from dilatometer data (Netzsch DIL-402c) by curve fitting

File: byto000sA1r2-16mm-102619.csv
#EXPORTTYPE:           ,DATA ALL                                                                                                    ,,,,,,
#FILE:                 ,bytownA1run2.ngb-sle                                                                                        ,,,,,,
#FORMAT:               ,NETZSCH5                                                                                                    ,,,,,,
#FTYPE:                ,ANSI                                                                                                        ,,,,,,
#IDENTITY:             ,fmb-A                                                                                                       ,,,,,,
#DECIMAL:              ,POINT                                                                                                       ,,,,,,
#SEPARATOR:            ,COMMA                                                                                                       ,,,,,,
#MTYPE:                ,DIL                                                                                                         ,,,,,,
#INSTRUMENT:           ,NETZSCH DIL 402C                                                                                            ,,,,,,
#PROJECT:              ,feldspar                                                                                                    ,,,,,,
#DATE/TIME:            ,10/26/2019 10:13:27 AM (UTC-5)                                                                              ,,,,,,
#CORR. FILE:           ,                                                                                                            ,,,,,,
#TEMPCAL:              ,TCALZERO.TMX                                                                                                ,,,,,,
#LABORATORY:           ,Mineral Physics                                                                                             ,,,,,,
#OPERATOR:             ,PAG                                                                                                         ,,,,,,
#REMARK:               ,bare, norm start, for bytown and rocks , long stnd, new thermocouple, new pushrod, redo wa heated to 850 c
#SAMPLE:               ,mexi bytownite                                                                                              ,,,,,,
#SAMPLE LENGTH /mm:    ,16.048,,,,,,
#MATERIAL:             ,sapphire stnd                                                                                               ,,,,,,
#MEASMODE:             ,Standard Expansion                                                                                          ,,,,,,
#PURGE GAS 1:          ,ARGON                                                                                                       ,,,,,,
#FLOW RATE 1 /(ml/min):,75,,,,,,
#M.RANGE /µm:          ,500,,,,,,
#CORR. CODE:           ,10,,,,,,
#RANGE:                ,20.0°C/3.0(K/min)/1180.0°C                                                                                  ,,,,,,
#SEGMENT:              ,S1/1                                                                                                        ,,,,,,
#SEG. 1:               ,20.0°C/3.0(K/min)/1180.0°C                                                                                  ,,,,,,
,,,,,,,
##Temp./°C,Time/min,dL/Lo,,,,,
21.19,0.000000000000,1.2758e-05,,,,,
21.296,1.3,1.7184e-05,,,,,
21.322,2.6,1.6022e-05,,,,,
21.695,3.9,1.1856e-05,,,,,
24.284,5.2,-0.000002730200,,,,,
29.437,6.5,-0.000007847000,,,,,
35.621,7.8,1.535e-05,,,,,
41.896,9.1,6.1532e-05,,,,,
48.32,10.4,0.00011957,,,,,
54.996,11.7,0.00018471,,,,,
61.846,13,0.00025792,,,,,
68.687,14.3,0.00033783,,,,,
75.471,15.6,0.0004217,,,,,
82.243,16.9,0.00050844,,,,,
88.898,18.2,0.00059656,,,,,
95.473,19.5,0.0006856,,,,,
101.953,20.8,0.0007751,,,,,
108.374,22.1,0.00086512,,,,,
114.704,23.4,0.0009553,,,,,
120.978,24.7,0.0010453,,,,,
127.178,26,0.0011345,,,,,
133.353,27.3,0.0012239,,,,,
139.47,28.6,0.0013131,,,,,
145.554,29.9,0.0014016,,,,,
151.584,31.2,0.0014891,,,,,
157.559,32.5,0.0015767,,,,,
163.498,33.8,0.0016643,,,,,
169.394,35.1,0.0017507,,,,,
175.223,36.4,0.0018371,,,,,
181.038,37.7,0.0019236,,,,,
186.812,39,0.0020095,,,,,
192.549,40.3,0.0020946,,,,,
198.223,41.6,0.0021797,,,,,
203.868,42.9,0.002264,,,,,
209.471,44.2,0.0023474,,,,,
215.049,45.5,0.0024304,,,,,
220.574,46.8,0.002513,,,,,
226.071,48.1,0.0025952,,,,,
231.518,49.4,0.0026766,,,,,
236.959,50.7,0.0027581,,,,,
242.334,52,0.0028384,,,,,
247.672,53.3,0.0029186,,,,,
252.977,54.6,0.0029985,,,,,
258.231,55.9,0.0030775,,,,,
263.45,57.2,0.0031562,,,,,
268.64,58.5,0.0032345,,,,,
273.794,59.8,0.0033117,,,,,
278.919,61.1,0.0033886,,,,,
283.998,62.4,0.0034649,,,,,
289.049,63.7,0.003541,,,,,
294.062,65,0.0036164,,,,,
299.047,66.3,0.0036911,,,,,
304.009,67.6,0.0037652,,,,,
308.927,68.9,0.0038389,,,,,
313.814,70.2,0.0039126,,,,,
318.677,71.5,0.0039854,,,,,
323.505,72.8,0.0040579,,,,,
328.286,74.1,0.0041302,,,,,
333.044,75.4,0.0042016,,,,,
337.801,76.7,0.0042728,,,,,
342.533,78,0.0043435,,,,,
347.229,79.3,0.0044137,,,,,
351.889,80.6,0.0044835,,,,,
356.527,81.9,0.0045531,,,,,
361.141,83.2,0.0046226,,,,,
365.726,84.5,0.0046914,,,,,
370.288,85.8,0.00476,,,,,
374.831,87.1,0.0048278,,,,,
379.345,88.4,0.004896,,,,,
383.833,89.7,0.0049634,,,,,
388.295,91,0.0050304,,,,,
392.74,92.3,0.0050972,,,,,
397.141,93.6,0.0051632,,,,,
401.574,94.9,0.00523,,,,,
405.961,96.2,0.0052959,,,,,
410.334,97.5,0.0053614,,,,,
414.686,98.8,0.0054267,,,,,
419.015,100.1,0.0054915,,,,,
423.351,101.4,0.0055564,,,,,
427.644,102.7,0.0056264,,,,,
431.902,104,0.00569,,,,,
436.157,105.3,0.0057544,,,,,
440.336,106.6,0.0058197,,,,,
444.469,107.9,0.0058845,,,,,
448.676,109.2,0.0059465,,,,,
453.046,110.5,0.0060086,,,,,
457.469,111.8,0.0060723,,,,,
461.838,113.1,0.0061371,,,,,
466.13,114.4,0.0062015,,,,,
470.356,115.7,0.006265,,,,,
474.537,117,0.0063279,,,,,
478.66,118.3,0.0063905,,,,,
482.733,119.6,0.0064522,,,,,
486.784,120.9,0.0065134,,,,,
490.798,122.2,0.0065746,,,,,
494.798,123.5,0.0066352,,,,,
498.78,124.8,0.0066951,,,,,
502.744,126.1,0.0067547,,,,,
506.703,127.4,0.0068142,,,,,
510.65,128.7,0.0068731,,,,,
514.587,130,0.0069321,,,,,
518.503,131.3,0.0069912,,,,,
522.41,132.6,0.0070502,,,,,
526.324,133.9,0.0071088,,,,,
530.245,135.2,0.0071679,,,,,
534.124,136.5,0.0072268,,,,,
537.994,137.8,0.0072852,,,,,
541.887,139.1,0.0073441,,,,,
545.757,140.4,0.0074033,,,,,
549.608,141.7,0.0074611,,,,,
553.461,143,0.0075192,,,,,
557.3,144.3,0.0075774,,,,,
561.11,145.6,0.0076354,,,,,
564.888,146.9,0.0076946,,,,,
568.614,148.2,0.0077526,,,,,
572.409,149.5,0.007809,,,,,
576.332,150.8,0.0078664,,,,,
580.245,152.1,0.0079248,,,,,
584.098,153.4,0.0079834,,,,,
587.912,154.7,0.0080412,,,,,
591.689,156,0.008099,,,,,
595.452,157.3,0.0081561,,,,,
599.19,158.6,0.0082132,,,,,
602.899,159.9,0.0082698,,,,,
606.583,161.2,0.0083266,,,,,
610.266,162.5,0.0083835,,,,,
613.938,163.8,0.0084393,,,,,
617.614,165.1,0.0084957,,,,,
621.282,166.4,0.0085519,,,,,
624.913,167.7,0.0086081,,,,,
628.55,169,0.0086634,,,,,
632.186,170.3,0.0087191,,,,,
635.832,171.6,0.0087753,,,,,
639.445,172.9,0.008832,,,,,
643.019,174.2,0.0088891,,,,,
646.519,175.5,0.0089455,,,,,
650.082,176.8,0.0090005,,,,,
653.77,178.1,0.0090571,,,,,
657.449,179.4,0.0091143,,,,,
661.123,180.7,0.0091713,,,,,
664.75,182,0.009228,,,,,
[...]
751.388,214.5,0.010602,,,,,
754.79,215.8,0.010656,,,,,
758.169,217.1,0.010708,,,,,
761.571,218.4,0.010763,,,,,
764.94,219.7,0.010818,,,,,
768.301,221,0.010871,,,,,
771.648,222.3,0.010924,,,,,
774.986,223.6,0.010978,,,,,
778.279,224.9,0.011028,,,,,
781.628,226.2,0.011081,,,,,
784.984,227.5,0.011134,,,,,
788.266,228.8,0.011187,,,,,
791.472,230.1,0.011239,,,,,
794.56,231.4,0.011291,,,,,
797.746,232.7,0.011342,,,,,
801.021,234,0.011393,,,,,
804.295,235.3,0.011445,,,,,
807.534,236.6,0.011496,,,,,
810.839,237.9,0.011548,,,,,
814.082,239.2,0.0116,,,,,
817.256,240.5,0.011651,,,,,
820.451,241.8,0.011701,,,,,
823.64,243.1,0.011752,,,,,
826.916,244.4,0.011805,,,,,
830.273,245.7,0.011857,,,,,
833.589,247,0.011911,,,,,
836.902,248.3,0.011962,,,,,
840.247,249.6,0.012014,,,,,
843.58,250.9,0.012066,,,,,
846.954,252.2,0.012118,,,,,
850.347,253.5,0.012172,,,,,
853.649,254.8,0.012226,,,,,
856.922,256.1,0.012278,,,,,
860.281,257.4,0.01233,,,,,
863.704,258.7,0.012384,,,,,
867.135,260,0.012438,,,,,
870.574,261.3,0.012493,,,,,
873.959,262.6,0.012548,,,,,
877.288,263.9,0.012602,,,,,
880.928,265.2,0.012656,,,,,
884.397,266.5,0.012716,,,,,
887.625,267.8,0.012769,,,,,
890.935,269.1,0.012823,,,,,
894.283,270.4,0.012874,,,,,
897.682,271.7,0.012929,,,,,
901.016,273,0.012983,,,,,
904.306,274.3,0.013036,,,,,
907.519,275.6,0.01309,,,,,
910.524,276.9,0.013143,,,,,
913.222,278.2,0.013189,,,,,
916.3,279.5,0.013238,,,,,
919.235,280.8,0.013287,,,,,
921.764,282.1,0.013331,,,,,
924.814,283.4,0.013375,,,,,
928.246,284.7,0.013428,,,,,
931.517,286,0.013481,,,,,
934.845,287.3,0.013533,,,,,
938.164,288.6,0.013587,,,,,
941.523,289.9,0.01364,,,,,
944.834,291.2,0.013693,,,,,
948.13,292.5,0.013747,,,,,
951.499,293.8,0.013799,,,,,
954.918,295.1,0.013854,,,,,
958.313,296.4,0.013909,,,,,
961.684,297.7,0.013963,,,,,
965.048,299,0.014017,,,,,
968.462,300.3,0.014072,,,,,
971.95,301.6,0.014127,,,,,
975.546,302.9,0.014184,,,,,
979.147,304.2,0.014241,,,,,
982.812,305.5,0.014299,,,,,
986.308,306.8,0.014357,,,,,
989.736,308.1,0.014411,,,,,
993.277,309.4,0.014468,,,,,
996.787,310.7,0.014526,,,,,
1000.27,312,0.014582,,,,,
1003.74,313.3,0.014638,,,,,
1007.2,314.6,0.014694,,,,,
1010.69,315.9,0.014751,,,,,
1014.26,317.2,0.014809,,,,,
1017.83,318.5,0.014865,,,,,
1021.36,319.8,0.014921,,,,,
1024.88,321.1,0.014979,,,,,
1028.44,322.4,0.015035,,,,,
1031.99,323.7,0.015095,,,,,
1035.62,325,0.015153,,,,,
1039.16,326.3,0.015213,,,,,
1042.79,327.6,0.015272,,,,,
1046.31,328.9,0.015332,,,,,
1049.85,330.2,0.015391,,,,,
1053.4,331.5,0.015448,,,,,
1057.04,332.8,0.015507,,,,,
1060.53,334.1,0.015569,,,,,
1064.16,335.4,0.015628,,,,,
1067.6,336.7,0.015687,,,,,
1071.13,338,0.015745,,,,,
1074.8,339.3,0.015805,,,,,
1078.36,340.6,0.01587,,,,,
1081.95,341.9,0.01593,,,,,
1085.77,343.2,0.015991,,,,,
1089.73,344.5,0.016061,,,,,
1092.89,345.8,0.016115,,,,,
1096.6,347.1,0.016174,,,,,
1100.06,348.4,0.016234,,,,,
1103.57,349.7,0.016292,,,,,
1107.35,351,0.016355,,,,,
1111.04,352.3,0.016413,,,,,
1114.79,353.6,0.016475,,,,,
1118.57,354.9,0.016539,,,,,
1122.3,356.2,0.016601,,,,,
1126.08,357.5,0.016664,,,,,
1129.81,358.8,0.016728,,,,,
1133.42,360.1,0.016791,,,,,
1136.83,361.4,0.01685,,,,,
1140.27,362.7,0.016908,,,,,
1143.92,364,0.016968,,,,,
1147.64,365.3,0.01703,,,,,
1151.34,366.6,0.017092,,,,,
1155.01,367.9,0.017152,,,,,
1158.66,369.2,0.017212,,,,,
1162.28,370.5,0.017269,,,,,
1165.99,371.8,0.017329,,,,,
1169.72,373.1,0.01739,,,,,
1173.22,374.4,0.017448,,,,,
1176.65,375.7,0.017504,,,,,
1180.26,377,0.017562,,,,,
1183.83,378.3,0.01762,,,,,
1187.54,379.6,0.017679,,,,,
1191.16,380.9,0.017739,,,,,
1194.75,382.2,0.017794,,,,,
1198.42,383.5,0.017852,,,,,
1198.89,383.673,0.01786,,,,,

File: ExpDat_sapph16.6mm10282019s.csv
#EXPORTTYPE:           ,DATA ALL
#FILE:                 ,sapph17mm10282019s.ngb-cle
#FORMAT:               ,NETZSCH5
#FTYPE:                ,ANSI
#IDENTITY:             ,sapphire 17
#DECIMAL:              ,POINT
#SEPARATOR:            ,COMMA
#MTYPE:                ,DIL
#INSTRUMENT:           ,NETZSCH DIL 402C
#PROJECT:              ,feldspar
#DATE/TIME:            ,10/28/2019 9:58:07 AM (UTC-5)
#CORR. FILE:           ,
#TEMPCAL:              ,TCALZERO.TMX
#LABORATORY:           ,Mineral Physics
#OPERATOR:             ,PAG
#REMARK:               ,bare, norm start, for bytown and rocks , long stnd, new thermocouple, new pushrod, redo again for check
#SAMPLE:               ,sapph standar
#SAMPLE LENGTH /mm:    ,16.592
#MATERIAL:             ,sapphire stnd
#MEASMODE:             ,Standard Expansion
#PURGE GAS 1:          ,ARGON
#FLOW RATE 1 /(ml/min):,75
#M.RANGE /µm:          ,500
#CORR. CODE:           ,010
#RANGE:                ,20.0°C/3.0(K/min)/1170.0°C
#SEGMENT:              ,S1/1
#SEG. 1:               ,20.0°C/3.0(K/min)/1170.0°C

##Temp./°C,Time/min,dL/Lo
  22.28200,  0.00000,2.0560e-005
  22.43500,  1.27833,3.1568e-005
  22.48200,  2.55667,3.2996e-005
  22.58200,  3.83500,3.2008e-005
  23.85900,  5.11333,2.2117e-005
  27.79800,  6.39167,1.2478e-005
  33.48300,  7.67000,2.7187e-005
  39.59000,  8.94833,7.0516e-005
  45.73400, 10.22667,1.2753e-004
  52.14500, 11.50500,1.9193e-004
  58.82500, 12.78333,2.6410e-004
  65.56500, 14.06167,3.4368e-004
  72.30900, 15.34000,4.2848e-004
  78.98300, 16.61833,5.1675e-004
  85.59800, 17.89667,6.0704e-004
  92.14800, 19.17500,6.9981e-004
  98.58500, 20.45333,7.9312e-004
 104.963, 21.73167,8.8695e-004
 111.261, 23.01000,9.8036e-004
 117.496, 24.28833,1.0734e-003
 123.669, 25.56667,1.1652e-003
 129.806, 26.84500,1.2574e-003
 135.887, 28.12333,1.3504e-003
 141.915, 29.40167,1.4429e-003
 147.911, 30.68000,1.5338e-003
 153.848, 31.95833,1.6240e-003
 159.757, 33.23667,1.7140e-003
 165.609, 34.51500,1.8027e-003
 171.441, 35.79333,1.8914e-003
 177.239, 37.07167,1.9800e-003
 182.982, 38.35000,2.0678e-003
 188.682, 39.62833,2.1550e-003
 194.359, 40.90667,2.2412e-003
 199.991, 42.18500,2.3270e-003
 205.586, 43.46333,2.4126e-003
 211.119, 44.74167,2.4994e-003
 216.562, 46.02000,2.5848e-003
 221.992, 47.29833,2.6670e-003
 227.542, 48.57667,2.7477e-003
 233.182, 49.85500,2.8293e-003
 238.79, 51.13333,2.9133e-003
 244.294, 52.41167,2.9978e-003
 249.715, 53.69000,3.0804e-003
 255.046, 54.96833,3.1622e-003
 260.305, 56.24667,3.2431e-003
 265.488, 57.52500,3.3230e-003
 270.622, 58.80333,3.4018e-003
 275.705, 60.08167,3.4799e-003
 280.73, 61.36000,3.5571e-003
 285.731, 62.63833,3.6337e-003
 290.702, 63.91667,3.7089e-003
 295.623, 65.19500,3.7844e-003
 300.514, 66.47333,3.8586e-003
 305.386, 67.75167,3.9329e-003
 310.22, 69.03000,4.0063e-003
 315.019, 70.30833,4.0795e-003
 319.793, 71.58667,4.1521e-003
 324.557, 72.86500,4.2245e-003
 329.277, 74.14333,4.2965e-003
 333.962, 75.42167,4.3679e-003
 338.631, 76.70000,4.4384e-003
 343.28, 77.97833,4.5085e-003
 347.9, 79.25667,4.5793e-003
 352.497, 80.53500,4.6490e-003
 357.063, 81.81333,4.7181e-003
 361.61, 83.09167,4.7874e-003
 366.128, 84.37000,4.8554e-003
 370.637, 85.64833,4.9240e-003
 375.108, 86.92667,4.9919e-003
 379.557, 88.20500,5.0588e-003
 383.962, 89.48333,5.1261e-003
 388.387, 90.76167,5.1938e-003
 392.781, 92.04000,5.2603e-003
 397.137, 93.31833,5.3260e-003
 401.464, 94.59667,5.3924e-003
 405.78, 95.87500,5.4574e-003
 410.087, 97.15333,5.5228e-003
 414.357, 98.43167,5.5878e-003
 418.61, 99.71000,5.6519e-003
 422.85,100.988,5.7163e-003
 427.055,102.267,5.7798e-003
 431.26,103.545,5.8443e-003
 435.441,104.823,5.9082e-003
 439.603,106.102,5.9725e-003
 443.723,107.38,6.0375e-003
 447.779,108.658,6.1016e-003
 451.864,109.937,6.1627e-003
 456.099,111.215,6.2240e-003
 460.345,112.493,6.2878e-003
 464.538,113.772,6.3514e-003
 468.691,115.05,6.4140e-003
 472.77,116.328,6.4769e-003
 476.829,117.607,6.5390e-003
 480.85,118.885,6.6052e-003
 484.828,120.163,6.6651e-003
 488.778,121.442,6.7240e-003
 492.712,122.72,6.7842e-003
 496.641,123.998,6.8442e-003
 500.541,125.277,6.9032e-003
 504.424,126.555,6.9625e-003
 508.307,127.833,7.0211e-003
 512.173,129.112,7.0803e-003
 516.023,130.39,7.1398e-003
 519.788,131.668,7.2009e-003
 523.557,132.947,7.2578e-003
 527.425,134.225,7.3139e-003
 531.385,135.503,7.3723e-003
 535.329,136.782,7.4322e-003
 539.208,138.06,7.4910e-003
 543.045,139.338,7.5490e-003
 546.86,140.617,7.6068e-003
 550.644,141.895,7.6633e-003
 554.407,143.173,7.7204e-003
 558.149,144.452,7.7766e-003
 561.899,145.73,7.8323e-003
 565.61,147.008,7.8887e-003
 569.308,148.287,7.9424e-003
 573.021,149.565,7.9973e-003
 576.706,150.843,8.0513e-003
 580.389,152.122,8.1064e-003
 584.07,153.4,8.1609e-003
 587.741,154.678,8.2169e-003
 591.388,155.957,8.2711e-003
 595.05,157.235,8.3255e-003
 598.705,158.513,8.3805e-003
 602.336,159.792,8.4357e-003
 605.949,161.07,8.4893e-003
 609.577,162.348,8.5449e-003
 613.198,163.627,8.5996e-003
 616.783,164.905,8.6545e-003
 620.369,166.183,8.7107e-003
 623.897,167.462,8.7663e-003
 627.375,168.74,8.8215e-003
 630.947,170.018,8.8745e-003
 634.633,171.297,8.9301e-003
 638.292,172.575,8.9866e-003
 641.917,173.853,9.0434e-003
 645.522,175.132,9.0989e-003
 649.092,176.41,9.1538e-003
 652.638,177.688,9.2087e-003
 656.156,178.967,9.2625e-003
 659.663,180.245,9.3175e-003
 663.16,181.523,9.3707e-003
 666.653,182.802,9.4255e-003
 670.145,184.08,9.4795e-003
 673.606,185.358,9.5336e-003
 677.047,186.637,9.5865e-003
 680.489,187.915,9.6396e-003
 683.94,189.193,9.6926e-003
 687.353,190.472,9.7456e-003
 690.75,191.75,9.7984e-003
 694.134,193.028,9.8505e-003
 697.485,194.307,9.9027e-003
 700.839,195.585,9.9543e-003
 704.193,196.863,1.0006e-002
 707.486,198.142,1.0059e-002
 710.732,199.42,1.0110e-002
 714.069,200.698,1.0160e-002
 717.505,201.977,1.0210e-002
 720.961,203.255,1.0262e-002
 724.397,204.533,1.0314e-002
 727.825,205.812,1.0365e-002
 731.222,207.09,1.0416e-002
 734.6,208.368,1.0466e-002
 737.977,209.647,1.0516e-002
 741.342,210.925,1.0568e-002
 744.698,212.203,1.0618e-002
 748.041,213.482,1.0668e-002
 751.372,214.76,1.0717e-002
 754.692,216.038,1.0766e-002
 758.027,217.317,1.0816e-002
 761.35,218.595,1.0865e-002
 764.601,219.873,1.0915e-002
 767.8,221.152,1.0963e-002
 771.118,222.43,1.1010e-002
 774.502,223.708,1.1058e-002
 777.901,224.987,1.1107e-002
 781.285,226.265,1.1156e-002
 784.617,227.543,1.1204e-002
 787.925,228.822,1.1254e-002
 791.122,230.1,1.1302e-002
 794.285,231.378,1.1349e-002
 797.406,232.657,1.1396e-002
 800.445,233.935,1.1444e-002
 803.581,235.213,1.1491e-002
 806.735,236.492,1.1540e-002
 809.86,237.77,1.1589e-002
 812.915,239.048,1.1637e-002
 815.961,240.327,1.1685e-002
 819.101,241.605,1.1732e-002
 822.288,242.883,1.1782e-002
 825.492,244.162,1.1832e-002
 828.673,245.44,1.1883e-002
 831.835,246.718,1.1933e-002
 835.099,247.997,1.1983e-002
 838.429,249.275,1.2035e-002
 841.787,250.553,1.2089e-002
 845.194,251.832,1.2142e-002
 848.57,253.11,1.2194e-002
 851.93,254.388,1.2247e-002
 855.325,255.667,1.2300e-002
 858.688,256.945,1.2352e-002
 862.033,258.223,1.2405e-002
 865.343,259.502,1.2459e-002
 868.553,260.78,1.2511e-002
 871.836,262.058,1.2562e-002
 875.189,263.337,1.2616e-002
 878.54,264.615,1.2669e-002
 881.848,265.893,1.2722e-002
 885.05,267.172,1.2774e-002
 888.223,268.45,1.2825e-002
 891.493,269.728,1.2877e-002
 894.717,271.007,1.2930e-002
 897.987,272.285,1.2983e-002
 901.178,273.563,1.3035e-002
 904.352,274.842,1.3087e-002
 907.543,276.12,1.3140e-002
 910.697,277.398,1.3191e-002
 913.765,278.677,1.3242e-002
 916.685,279.955,1.3291e-002
 919.002,281.233,1.3337e-002
 921.588,282.512,1.3376e-002
 924.716,283.79,1.3424e-002
 927.992,285.068,1.3477e-002
 931.275,286.347,1.3529e-002
 934.539,287.625,1.3582e-002
 937.791,288.903,1.3635e-002
 941.12,290.182,1.3687e-002
 944.41,291.46,1.3741e-002
 947.718,292.738,1.3793e-002
 951.089,294.017,1.3847e-002
 954.435,295.295,1.3902e-002
 957.748,296.573,1.3955e-002
 961.168,297.852,1.4011e-002
 964.444,299.13,1.4066e-002
 967.836,300.408,1.4117e-002
 971.399,301.687,1.4175e-002
 974.924,302.965,1.4232e-002
 978.405,304.243,1.4288e-002
 981.876,305.522,1.4344e-002
 985.393,306.8,1.4400e-002
 988.899,308.078,1.4457e-002
 992.408,309.357,1.4513e-002
 995.878,310.635,1.4569e-002
 999.342,311.913,1.4626e-002
1002.79,313.192,1.4682e-002
1006.11,314.47,1.4737e-002
1009.45,315.748,1.4792e-002
1012.97,317.027,1.4848e-002
1016.58,318.305,1.4907e-002
1020.1,319.583,1.4962e-002
1023.69,320.862,1.5019e-002
1027.19,322.14,1.5076e-002
1030.71,323.418,1.5132e-002
1034.19,324.697,1.5189e-002
1037.65,325.975,1.5245e-002
1041.18,327.253,1.5301e-002
1044.61,328.532,1.5357e-002
1048.24,329.81,1.5415e-002
1051.73,331.088,1.5474e-002
1055.25,332.367,1.5531e-002
1058.99,333.645,1.5589e-002
1062.66,334.923,1.5648e-002
1066.27,336.202,1.5707e-002
1069.69,337.48,1.5764e-002
1073.03,338.758,1.5817e-002
1076.38,340.037,1.5870e-002
1079.95,341.315,1.5928e-002
1083.56,342.593,1.5986e-002
1087.09,343.872,1.6042e-002
1090.66,345.15,1.6098e-002
1094.14,346.428,1.6157e-002
1097.69,347.707,1.6213e-002
1101.31,348.985,1.6272e-002
1104.74,350.263,1.6326e-002
1108.21,351.542,1.6381e-002
1111.66,352.82,1.6437e-002
1115.19,354.098,1.6492e-002
1118.79,355.377,1.6549e-002
1122.47,356.655,1.6607e-002
1126.09,357.933,1.6665e-002
1129.68,359.212,1.6724e-002
1133.01,360.49,1.6777e-002
1136.51,361.768,1.6830e-002
1140.18,363.047,1.6891e-002
1143.71,364.325,1.6945e-002
1147.35,365.603,1.7002e-002
1150.9,366.882,1.7058e-002
1154.26,368.16,1.7112e-002
1157.66,369.438,1.7168e-002
1161.27,370.717,1.7222e-002
1164.94,371.995,1.7279e-002
1168.68,373.273,1.7339e-002
1172.54,374.552,1.7400e-002
1175.97,375.83,1.7456e-002
1179.47,377.108,1.7511e-002
1182.74,378.387,1.7563e-002
1186.09,379.665,1.7616e-002
1189.69,380.943,1.7672e-002
1193.37,382.222,1.7730e-002
1194.89,382.742,1.7755e-002