Folder: thermal-expansion/data/8.1mm (part 3)

File: fmt100sBr2-10.0mm.csv
#EXPORTTYPE:           ,DATA ALL
#FILE:                 ,fmt100Brun2.ngb-sle
#FORMAT:               ,NETZSCH5
#FTYPE:                ,ANSI
#IDENTITY:             ,fmt100Brun2
#DECIMAL:              ,POINT
#SEPARATOR:            ,COMMA
#MTYPE:                ,DIL
#INSTRUMENT:           ,NETZSCH DIL 402C
#PROJECT:              ,feldspar
#DATE/TIME:            ,8/18/2019 9:49:26 AM (UTC-5)
#CORR. FILE:           ,
#TEMPCAL:              ,TCALZERO.TMX
#LABORATORY:           ,Mineral Physics
#OPERATOR:             ,PAG
#REMARK:               ,bare, norm start, for oligoclase fmt tall, reheated
#SAMPLE:               ,fmt100B
#SAMPLE LENGTH /mm:    ,10.018
#MATERIAL:             ,sapphire stnd
#MEASMODE:             ,Standard Expansion
#PURGE GAS 1:          ,ARGON
#FLOW RATE 1 /(ml/min):,75
#M.RANGE /µm:          ,500
#CORR. CODE:           ,010
#RANGE:                ,20.0°C/3.0(K/min)/1000.0°C
#SEGMENT:              ,S1/1
#SEG. 1:               ,20.0°C/3.0(K/min)/1000.0°C

##Temp./°C,Time/min,dL/Lo
  21.54300,  0.00000, 1.5723e-005
  25.04300,  5.39113,-3.2579e-005
  28.54300,  6.28677,-5.3729e-005
  32.04300,  7.05883,-6.0698e-005
  35.54300,  7.79333,-5.6972e-005
  39.04300,  8.52310,-4.2732e-005
  42.54300,  9.24738,-2.2645e-005
  46.04300,  9.95898, 7.5865e-008
  49.54300, 10.65471, 2.4487e-005
  53.04300, 11.33193, 4.9630e-005
  56.54300, 11.99902, 7.7725e-005
  60.04300, 12.65875, 1.0834e-004
  63.54300, 13.31881, 1.4100e-004
  67.04300, 13.97919, 1.7590e-004
  70.54300, 14.64258, 2.1282e-004
  74.04300, 15.30720, 2.4997e-004
  77.54300, 15.97482, 2.8930e-004
  81.04300, 16.64428, 3.2913e-004
  84.54300, 17.32150, 3.6970e-004
  88.04300, 18.00074, 4.1153e-004
  91.54300, 18.68553, 4.5405e-004
  95.04300, 19.37436, 4.9710e-004
  98.54300, 20.07070, 5.4054e-004
 102.043, 20.76820, 5.8441e-004
 105.543, 21.46933, 6.2844e-004
 109.043, 22.17465, 6.7276e-004
 112.543, 22.88410, 7.1751e-004
 116.043, 23.59893, 7.6215e-004
 119.543, 24.31649, 8.0718e-004
 123.043, 25.03653, 8.5215e-004
 126.543, 25.76033, 8.9766e-004
 130.043, 26.48660, 9.4320e-004
 133.543, 27.21543, 9.8885e-004
 137.043, 27.94957, 1.0348e-003
 140.543, 28.68795, 1.0806e-003
 144.043, 29.42603, 1.1272e-003
 147.543, 30.16673, 1.1736e-003
 151.043, 30.91295, 1.2202e-003
 154.543, 31.66361, 1.2670e-003
 158.043, 32.41333, 1.3143e-003
 161.543, 33.16860, 1.3611e-003
 165.043, 33.92700, 1.4082e-003
 168.543, 34.68752, 1.4550e-003
 172.043, 35.45214, 1.5022e-003
 175.543, 36.22101, 1.5502e-003
 179.043, 36.99006, 1.5977e-003
 182.543, 37.76333, 1.6448e-003
 186.043, 38.54037, 1.6923e-003
 189.543, 39.31853, 1.7398e-003
 193.043, 40.10000, 1.7872e-003
 196.543, 40.88334, 1.8350e-003
 200.043, 41.67307, 1.8825e-003
 203.543, 42.46561, 1.9301e-003
 207.043, 43.26248, 1.9775e-003
 210.543, 44.06249, 2.0251e-003
 214.043, 44.86382, 2.0727e-003
 217.543, 45.66954, 2.1208e-003
 221.043, 46.47885, 2.1682e-003
 224.543, 47.29348, 2.2158e-003
 228.043, 48.11025, 2.2635e-003
 231.543, 48.93097, 2.3115e-003
 235.043, 49.75567, 2.3591e-003
 238.543, 50.58297, 2.4072e-003
 242.043, 51.41321, 2.4548e-003
 245.543, 52.24816, 2.5033e-003
 249.043, 53.08760, 2.5508e-003
 252.543, 53.93058, 2.5987e-003
 256.043, 54.77727, 2.6468e-003
 259.543, 55.62832, 2.6946e-003
 263.043, 56.48282, 2.7419e-003
 266.543, 57.33947, 2.7894e-003
 270.043, 58.20140, 2.8375e-003
 273.543, 59.06918, 2.8849e-003
 277.043, 59.94023, 2.9337e-003
 280.543, 60.81811, 2.9810e-003
 284.043, 61.69638, 3.0283e-003
 287.543, 62.57511, 3.0759e-003
 291.043, 63.46040, 3.1231e-003
 294.543, 64.34933, 3.1714e-003
 298.043, 65.24609, 3.2207e-003
 301.543, 66.14616, 3.2692e-003
 305.043, 67.04937, 3.3171e-003
 308.543, 67.95425, 3.3644e-003
 312.043, 68.86419, 3.4125e-003
 315.543, 69.77814, 3.4611e-003
 319.043, 70.69884, 3.5084e-003
 322.543, 71.62552, 3.5557e-003
 326.043, 72.54973, 3.6036e-003
 329.543, 73.48159, 3.6510e-003
 333.043, 74.41649, 3.6993e-003
 336.543, 75.35753, 3.7473e-003
 340.043, 76.29881, 3.7936e-003
 343.543, 77.24407, 3.8415e-003
 347.043, 78.19405, 3.8888e-003
 350.543, 79.14853, 3.9376e-003
 354.043, 80.10617, 3.9837e-003
 357.543, 81.07063, 4.0312e-003
 361.043, 82.04063, 4.0790e-003
 364.543, 83.01205, 4.1269e-003
 368.043, 83.98760, 4.1750e-003
 371.543, 84.96682, 4.2235e-003
 375.043, 85.94799, 4.2705e-003
 378.543, 86.93223, 4.3191e-003
 382.043, 87.92174, 4.3677e-003
 385.543, 88.91739, 4.4165e-003
 389.043, 89.91398, 4.4770e-003
 392.543, 90.91630, 4.5248e-003
 396.043, 91.92296, 4.5727e-003
 399.543, 92.93259, 4.6198e-003
 403.043, 93.94653, 4.6670e-003
 406.543, 94.96767, 4.7162e-003
 410.043, 95.99029, 4.7638e-003
 413.543, 97.01910, 4.8107e-003
 417.043, 98.04808, 4.8580e-003
 420.543, 99.08041, 4.9051e-003
 424.043,100.115, 4.9527e-003
 427.543,101.159, 5.0012e-003
 431.043,102.21, 5.0490e-003
 434.543,103.257, 5.0971e-003
 438.043,104.309, 5.1450e-003
 441.543,105.369, 5.1939e-003
 445.043,106.431, 5.2436e-003
 448.543,107.498, 5.2912e-003
 452.043,108.567, 5.3405e-003
 455.543,109.642, 5.3897e-003
 459.043,110.726, 5.4393e-003
 462.543,111.828, 5.4919e-003
 466.043,112.922, 5.5399e-003
 469.543,113.98, 5.5846e-003
 473.043,115.025, 5.6302e-003
 476.543,116.072, 5.6776e-003
 480.043,117.14, 5.7256e-003
 483.543,118.217, 5.7728e-003
 487.043,119.309, 5.8218e-003
 490.543,120.413, 5.8699e-003
 494.043,121.521, 5.9174e-003
 497.543,122.639, 5.9663e-003
 501.043,123.765, 6.0154e-003
 504.543,124.897, 6.0632e-003
 508.043,126.03, 6.1107e-003
 511.543,127.173, 6.1602e-003
 515.043,128.316, 6.2082e-003
 518.543,129.466, 6.2567e-003
 522.043,130.615, 6.3046e-003
 525.543,131.766, 6.3542e-003
 529.043,132.918, 6.4035e-003
 532.543,134.079, 6.4523e-003
 536.043,135.244, 6.5012e-003
 539.543,136.406, 6.5497e-003
 543.043,137.573, 6.6009e-003
 546.543,138.741, 6.6503e-003
 550.043,139.918, 6.7004e-003
 553.543,141.097, 6.7486e-003
 557.043,142.278, 6.7960e-003
 560.543,143.458, 6.8437e-003
 564.043,144.645, 6.8913e-003
 567.543,145.836, 6.9391e-003
 571.043,147.029, 6.9856e-003
 574.543,148.227, 7.0329e-003
 578.043,149.426, 7.0798e-003
 581.543,150.642, 7.1304e-003
 585.043,151.879, 7.1811e-003
 588.543,153.101, 7.2281e-003
 592.043,154.278, 7.2710e-003
 595.543,155.44, 7.3166e-003
 599.043,156.617, 7.3624e-003
 602.543,157.811, 7.4113e-003
 606.043,159.017, 7.4589e-003
 609.543,160.232, 7.5064e-003
 613.043,161.455, 7.5534e-003
 616.543,162.683, 7.6000e-003
 620.043,163.919, 7.6477e-003
 623.543,165.161, 7.6966e-003
 627.043,166.411, 7.7436e-003
 630.543,167.659, 7.7907e-003
 634.043,168.911, 7.8399e-003
 637.543,170.165, 7.8871e-003
 641.043,171.424, 7.9346e-003
 644.543,172.684, 7.9815e-003
 648.043,173.95, 8.0287e-003
 651.543,175.215, 8.0756e-003
 655.043,176.479, 8.1212e-003
 658.543,177.752, 8.1680e-003
 662.043,179.025, 8.2145e-003
 665.543,180.3, 8.2599e-003
 669.043,181.581, 8.3069e-003
 672.543,182.872, 8.3541e-003
 676.043,184.177, 8.4031e-003
 679.543,185.51, 8.4533e-003
 683.043,186.822, 8.4984e-003
 686.543,188.097, 8.5423e-003
 690.043,189.369, 8.5880e-003
 693.543,190.66, 8.6336e-003
 697.043,191.965, 8.6798e-003
 700.543,193.277, 8.7252e-003
 704.043,194.598, 8.7705e-003
 707.543,195.92, 8.8142e-003
 711.043,197.247, 8.8611e-003
 714.543,198.578, 8.9072e-003
 718.043,199.938, 8.9580e-003
 721.543,201.318, 9.0068e-003
 725.043,202.646, 9.0516e-003
 728.543,203.943, 9.0972e-003
 732.043,205.246, 9.1439e-003
 735.543,206.56, 9.1896e-003
 739.043,207.879, 9.2355e-003
 742.543,209.212, 9.2825e-003
 746.043,210.548, 9.3295e-003
 749.543,211.891, 9.3746e-003
 753.043,213.24, 9.4223e-003
 756.543,214.589, 9.4694e-003
 760.043,215.94, 9.5153e-003
 763.543,217.292, 9.5613e-003
 767.043,218.643, 9.6082e-003
 770.543,220.002, 9.6544e-003
 774.043,221.359, 9.7013e-003
 777.543,222.711, 9.7467e-003
 781.043,224.071, 9.7932e-003
 784.543,225.507, 9.8433e-003
 788.043,227.044, 9.8948e-003
 791.543,228.558, 9.9396e-003
 795.043,229.967, 9.9841e-003
 798.543,231.424, 1.0031e-002
 802.043,232.905, 1.0075e-002
 805.543,234.375, 1.0120e-002
 809.043,235.841, 1.0162e-002
 812.543,237.254, 1.0204e-002
 816.043,238.656, 1.0248e-002
 819.543,240.068, 1.0290e-002
 823.043,241.472, 1.0332e-002
 826.543,242.846, 1.0376e-002
 830.043,244.219, 1.0419e-002
 833.543,245.574, 1.0464e-002
 837.043,246.935, 1.0506e-002
 840.543,248.282, 1.0551e-002
 844.043,249.643, 1.0597e-002
 847.543,251.005, 1.0644e-002
 851.043,252.413, 1.0691e-002
 854.543,253.765, 1.0734e-002
 858.043,255.092, 1.0777e-002
 861.543,256.417, 1.0821e-002
 865.043,257.746, 1.0864e-002
 868.543,259.079, 1.0908e-002
 872.043,260.417, 1.0951e-002
 875.543,261.775, 1.0994e-002
 879.043,263.149, 1.1038e-002
 882.543,264.544, 1.1084e-002
 886.043,265.956, 1.1129e-002
 889.543,267.354, 1.1171e-002
 893.043,268.746, 1.1217e-002
 896.543,270.149, 1.1263e-002
 900.043,271.555, 1.1310e-002
 903.543,273.03, 1.1358e-002
 907.043,274.54, 1.1408e-002
 910.543,276.105, 1.1456e-002
 914.043,278.018, 1.1505e-002
 917.543,279.496, 1.1543e-002
 921.043,280.851, 1.1585e-002
 924.543,282.234, 1.1629e-002
 928.043,283.63, 1.1671e-002
 931.543,285.019, 1.1714e-002
 935.043,286.395, 1.1759e-002
 938.543,287.742, 1.1804e-002
 942.043,289.087, 1.1847e-002
 945.543,290.421, 1.1892e-002
 949.043,291.796, 1.1939e-002
 952.543,293.157, 1.1981e-002
 956.043,294.415, 1.2025e-002
 959.543,295.802, 1.2070e-002
 963.043,297.052, 1.2109e-002
 966.543,298.306, 1.2153e-002
 970.043,299.659, 1.2199e-002
 973.543,300.988, 1.2239e-002
 977.043,302.2, 1.2283e-002
 980.543,303.511, 1.2325e-002
 984.043,304.798, 1.2366e-002
 987.543,306.118, 1.2407e-002
 991.043,307.394, 1.2448e-002
 994.543,308.703, 1.2492e-002
 998.043,310.04, 1.2538e-002
1001.54,311.477, 1.2584e-002
1005.04,312.793, 1.2625e-002
1008.54,314.047, 1.2664e-002
1012.04,315.319, 1.2707e-002
1015.54,316.586, 1.2746e-002
1019.04,317.914, 1.2790e-002
1019.54,318.106, 1.2797e-002

File: moon000s3r2-10.1mm.csv
#EXPORTTYPE:           ,DATA ALL
#FILE:                 ,moonstoneS3rn2.ngb-sle
#FORMAT:               ,NETZSCH5
#FTYPE:                ,ANSI
#IDENTITY:             ,moonstone 3 rerun
#DECIMAL:              ,POINT
#SEPARATOR:            ,COMMA
#MTYPE:                ,DIL
#INSTRUMENT:           ,NETZSCH DIL 402C
#PROJECT:              ,feldspar
#DATE/TIME:            ,9/16/2019 3:22:44 PM (UTC-5)
#CORR. FILE:           ,
#TEMPCAL:              ,TCALZERO.TMX
#LABORATORY:           ,Mineral Physics
#OPERATOR:             ,PAG
#REMARK:               ,bare, norm start, for oligoclase, moonstone #3 short and reaonably thin. rectancgle, large up , reheat
#SAMPLE:               ,moonstone 3 run#2
#SAMPLE LENGTH /mm:    ,10.090
#MATERIAL:             ,sapphire stnd
#MEASMODE:             ,Standard Expansion
#PURGE GAS 1:          ,ARGON
#FLOW RATE 1 /(ml/min):,75
#M.RANGE /µm:          ,500
#CORR. CODE:           ,010
#RANGE:                ,20.0°C/3.0(K/min)/414.0°C
#SEGMENT:              ,S1/1
#SEG. 1:               ,20.0°C/3.0(K/min)/414.0°C

##Temp./°C,Time/min,dL/Lo
 22.84300,  0.00000, 2.4570e-005
 22.76100,  0.34667, 2.0961e-005
 22.67500,  0.69333, 1.7645e-005
 22.58500,  1.04000, 1.4661e-005
 22.51900,  1.38667, 1.1575e-005
 22.43500,  1.73333, 8.6455e-006
 22.35200,  2.08000, 5.8843e-006
 22.26800,  2.42667, 3.0788e-006
 22.21700,  2.77333,-5.3141e-007
 22.18700,  3.12000,-4.8216e-006
 22.28200,  3.46667,-9.2963e-006
 22.53400,  3.81333,-1.6799e-005
 22.98100,  4.16000,-2.4072e-005
 23.66200,  4.50667,-3.1529e-005
 24.59300,  4.85333,-3.7517e-005
 25.71300,  5.20000,-4.1181e-005
 27.03500,  5.54667,-4.2227e-005
 28.50600,  5.89333,-4.0314e-005
 30.08600,  6.24000,-3.3930e-005
 31.71700,  6.58667,-2.4135e-005
 33.40400,  6.93333,-1.0088e-005
 35.11300,  7.28000, 6.4196e-006
 36.83400,  7.62667, 2.6677e-005
 38.54700,  7.97333, 4.7318e-005
 40.25100,  8.32000, 6.8918e-005
 41.98000,  8.66667, 9.3183e-005
 43.69100,  9.01333, 1.1876e-004
 45.41900,  9.36000, 1.4561e-004
 47.17200,  9.70667, 1.7497e-004
 48.93400, 10.05333, 2.0312e-004
 50.73100, 10.40000, 2.3171e-004
 52.54000, 10.74667, 2.6224e-004
 54.36700, 11.09333, 2.9558e-004
 56.21100, 11.44000, 3.3025e-004
 58.06700, 11.78667, 3.6422e-004
 59.92700, 12.13333, 4.0140e-004
 61.78800, 12.48000, 4.3687e-004
 63.64200, 12.82667, 4.7555e-004
 65.49700, 13.17333, 5.1276e-004
 67.35300, 13.52000, 5.4857e-004
 69.19300, 13.86667, 5.8786e-004
 71.03500, 14.21333, 6.2711e-004
 72.87500, 14.56000, 6.6793e-004
 74.71500, 14.90667, 7.0964e-004
 76.53400, 15.25333, 7.4951e-004
 78.36700, 15.60000, 7.8691e-004
 80.18000, 15.94667, 8.2340e-004
 81.97800, 16.29333, 8.5726e-004
 83.78000, 16.64000, 8.9472e-004
 85.57100, 16.98667, 9.3099e-004
 87.35700, 17.33333, 9.6598e-004
 89.13800, 17.68000, 1.0017e-003
 90.91000, 18.02667, 1.0331e-003
 92.68200, 18.37333, 1.0647e-003
 94.43700, 18.72000, 1.0998e-003
 96.19400, 19.06667, 1.1284e-003
 97.95000, 19.41333, 1.1525e-003
 99.69600, 19.76000, 1.1884e-003
101.428, 20.10667, 1.2269e-003
103.15, 20.45333, 1.2645e-003
104.857, 20.80000, 1.3018e-003
106.589, 21.14667, 1.3368e-003
108.301, 21.49333, 1.2385e-003
110.007, 21.84000, 1.2582e-003
111.706, 22.18667, 1.2823e-003
113.408, 22.53333, 1.3077e-003
115.106, 22.88000, 1.3385e-003
116.793, 23.22667, 1.3704e-003
118.477, 23.57333, 1.4031e-003
120.161, 23.92000, 1.4362e-003
121.821, 24.26667, 1.4705e-003
123.489, 24.61333, 1.5055e-003
125.173, 24.96000, 1.5412e-003
126.835, 25.30667, 1.5787e-003
128.489, 25.65333, 1.6162e-003
130.151, 26.00000, 1.6522e-003
131.81, 26.34667, 1.6887e-003
133.456, 26.69333, 1.7252e-003
135.104, 27.04000, 1.7620e-003
136.755, 27.38667, 1.7989e-003
138.386, 27.73333, 1.8314e-003
140.024, 28.08000, 1.8684e-003
141.652, 28.42667, 1.9055e-003
143.269, 28.77333, 1.9417e-003
144.885, 29.12000, 1.9779e-003
146.513, 29.46667, 2.0166e-003
148.139, 29.81333, 2.0540e-003
149.749, 30.16000, 2.0906e-003
151.369, 30.50667, 2.1277e-003
152.965, 30.85333, 2.1635e-003
154.563, 31.20000, 2.2007e-003
156.167, 31.54667, 2.2386e-003
157.755, 31.89333, 2.2784e-003
159.355, 32.24000, 2.3171e-003
160.947, 32.58667, 2.3560e-003
162.54, 32.93333, 2.3947e-003
164.125, 33.28000, 2.4300e-003
165.714, 33.62667, 2.4674e-003
167.296, 33.97333, 2.5079e-003
168.861, 34.32000, 2.5471e-003
170.44, 34.66667, 2.5830e-003
172.015, 35.01333, 2.6200e-003
173.576, 35.36000, 2.6601e-003
175.136, 35.70667, 2.7011e-003
176.696, 36.05333, 2.7397e-003
178.263, 36.40000, 2.7802e-003
179.813, 36.74667, 2.8203e-003
181.371, 37.09333, 2.8605e-003
182.917, 37.44000, 2.9012e-003
184.46, 37.78667, 2.9421e-003
186.003, 38.13333, 2.9824e-003
187.547, 38.48000, 3.0229e-003
189.095, 38.82667, 3.0633e-003
190.639, 39.17333, 3.1038e-003
192.178, 39.52000, 3.1436e-003
193.711, 39.86667, 3.1837e-003
195.231, 40.21333, 3.2228e-003
196.756, 40.56000, 3.2626e-003
198.268, 40.90667, 3.3027e-003
199.79, 41.25333, 3.3421e-003
201.311, 41.60000, 3.3816e-003
202.83, 41.94667, 3.4192e-003
204.348, 42.29333, 3.4565e-003
205.856, 42.64000, 3.4954e-003
207.365, 42.98667, 3.5353e-003
208.864, 43.33333, 3.5737e-003
210.366, 43.68000, 3.6085e-003
211.865, 44.02667, 3.6464e-003
213.347, 44.37333, 3.6847e-003
214.839, 44.72000, 3.7207e-003
216.328, 45.06667, 3.7592e-003
217.81, 45.41333, 3.7946e-003
219.288, 45.76000, 3.8284e-003
220.769, 46.10667, 3.8654e-003
222.244, 46.45333, 3.8993e-003
223.721, 46.80000, 3.9363e-003
225.19, 47.14667, 3.9750e-003
226.654, 47.49333, 4.0132e-003
228.122, 47.84000, 4.0518e-003
229.584, 48.18667, 4.0901e-003
231.042, 48.53333, 4.1289e-003
232.491, 48.88000, 4.1668e-003
233.946, 49.22667, 4.2053e-003
235.399, 49.57333, 4.2426e-003
236.839, 49.92000, 4.2808e-003
238.288, 50.26667, 4.3194e-003
239.731, 50.61333, 4.3574e-003
241.169, 50.96000, 4.3952e-003
242.608, 51.30667, 4.4336e-003
244.049, 51.65333, 4.4707e-003
245.479, 52.00000, 4.5081e-003
246.9, 52.34667, 4.5460e-003
248.329, 52.69333, 4.5828e-003
249.753, 53.04000, 4.6165e-003
251.172, 53.38667, 4.6513e-003
252.6, 53.73333, 4.6895e-003
254.008, 54.08000, 4.7260e-003
255.427, 54.42667, 4.7625e-003
256.835, 54.77333, 4.7999e-003
258.24, 55.12000, 4.8367e-003
259.643, 55.46667, 4.8704e-003
261.046, 55.81333, 4.9045e-003
262.454, 56.16000, 4.9413e-003
263.86, 56.50667, 4.9773e-003
265.252, 56.85333, 5.0141e-003
266.637, 57.20000, 5.0505e-003
268.028, 57.54667, 5.0867e-003
269.413, 57.89333, 5.1232e-003
270.788, 58.24000, 5.1571e-003
272.177, 58.58667, 5.1884e-003
273.552, 58.93333, 5.2197e-003
274.934, 59.28000, 5.2516e-003
276.317, 59.62667, 5.2838e-003
277.683, 59.97333, 5.3193e-003
279.052, 60.32000, 5.3543e-003
280.419, 60.66667, 5.3904e-003
281.788, 61.01333, 5.4261e-003
283.141, 61.36000, 5.4615e-003
284.501, 61.70667, 5.4945e-003
285.856, 62.05333, 5.5251e-003
287.211, 62.40000, 5.5545e-003
288.556, 62.74667, 5.5863e-003
289.914, 63.09333, 5.6171e-003
291.273, 63.44000, 5.6521e-003
292.618, 63.78667, 5.6871e-003
293.96, 64.13333, 5.7225e-003
295.307, 64.48000, 5.7574e-003
296.638, 64.82667, 5.7879e-003
297.98, 65.17333, 5.8173e-003
299.305, 65.52000, 5.8468e-003
300.639, 65.86667, 5.8764e-003
301.966, 66.21333, 5.9071e-003
303.29, 66.56000, 5.9362e-003
304.605, 66.90667, 5.9660e-003
305.927, 67.25333, 5.9970e-003
307.252, 67.60000, 6.0267e-003
308.573, 67.94667, 6.0563e-003
309.892, 68.29333, 6.0877e-003
311.206, 68.64000, 6.1179e-003
312.518, 68.98667, 6.1479e-003
313.826, 69.33333, 6.1805e-003
315.132, 69.68000, 6.2137e-003
316.437, 70.02667, 6.2452e-003
317.75, 70.37333, 6.2777e-003
319.043, 70.72000, 6.3071e-003
320.339, 71.06667, 6.3369e-003
321.631, 71.41333, 6.3661e-003
322.92, 71.76000, 6.3986e-003
324.212, 72.10667, 6.4325e-003
325.501, 72.45333, 6.4649e-003
326.786, 72.80000, 6.4982e-003
328.079, 73.14667, 6.5314e-003
329.365, 73.49333, 6.5653e-003
330.63, 73.84000, 6.5976e-003
331.916, 74.18667, 6.6316e-003
333.192, 74.53333, 6.6651e-003
334.468, 74.88000, 6.6977e-003
335.745, 75.22667, 6.7313e-003
337.011, 75.57333, 6.7649e-003
338.281, 75.92000, 6.7971e-003
339.542, 76.26667, 6.8305e-003
340.811, 76.61333, 6.8642e-003
342.074, 76.96000, 6.8960e-003
343.329, 77.30667, 6.9295e-003
344.595, 77.65333, 6.9631e-003
345.85, 78.00000, 6.9946e-003
347.104, 78.34667, 7.0273e-003
348.352, 78.69333, 7.0605e-003
349.608, 79.04000, 7.0929e-003
350.844, 79.38667, 7.1246e-003
352.082, 79.73333, 7.1577e-003
353.331, 80.08000, 7.1900e-003
354.574, 80.42667, 7.2227e-003
355.82, 80.77333, 7.2550e-003
357.053, 81.12000, 7.2869e-003
358.3, 81.46667, 7.3196e-003
359.535, 81.81333, 7.3509e-003
360.763, 82.16000, 7.3838e-003
361.991, 82.50667, 7.4153e-003
363.214, 82.85333, 7.4472e-003
364.438, 83.20000, 7.4789e-003
365.669, 83.54667, 7.5115e-003
366.884, 83.89333, 7.5422e-003
368.113, 84.24000, 7.5738e-003
369.341, 84.58667, 7.6056e-003
370.558, 84.93333, 7.6376e-003
371.766, 85.28000, 7.6703e-003
372.983, 85.62667, 7.7003e-003
374.199, 85.97333, 7.7325e-003
375.411, 86.32000, 7.7645e-003
376.616, 86.66667, 7.7947e-003
377.825, 87.01333, 7.8262e-003
379.041, 87.36000, 7.8577e-003
380.255, 87.70667, 7.8908e-003
381.451, 88.05333, 7.9210e-003
382.65, 88.40000, 7.9519e-003
383.854, 88.74667, 7.9834e-003
385.043, 89.09333, 8.0149e-003
386.242, 89.44000, 8.0451e-003
387.431, 89.78667, 8.0767e-003
388.617, 90.13333, 8.1073e-003
389.815, 90.48000, 8.1378e-003
391.002, 90.82667, 8.1693e-003
392.188, 91.17333, 8.2006e-003
393.385, 91.52000, 8.2315e-003
394.569, 91.86667, 8.2613e-003
395.748, 92.21333, 8.2921e-003
396.928, 92.56000, 8.3230e-003
398.098, 92.90667, 8.3535e-003
399.269, 93.25333, 8.3845e-003
400.453, 93.60000, 8.4142e-003
401.638, 93.94667, 8.4454e-003
402.804, 94.29333, 8.4759e-003
403.971, 94.64000, 8.5052e-003
405.141, 94.98667, 8.5360e-003
406.31, 95.33333, 8.5665e-003
407.477, 95.68000, 8.5965e-003
408.645, 96.02667, 8.6272e-003
409.81, 96.37333, 8.6565e-003
410.97, 96.72000, 8.6871e-003
412.143, 97.06667, 8.7173e-003
413.304, 97.41333, 8.7478e-003
414.466, 97.76000, 8.7778e-003
415.613, 98.10667, 8.8077e-003
416.763, 98.45333, 8.8372e-003
417.899, 98.80000, 8.8669e-003
419.059, 99.14667, 8.8970e-003
420.207, 99.49333, 8.9264e-003
421.366, 99.84000, 8.9569e-003
422.512,100.187, 8.9859e-003
423.66,100.533, 9.0153e-003
424.814,100.88, 9.0457e-003
425.956,101.227, 9.0749e-003
427.086,101.573, 9.1038e-003
428.224,101.92, 9.1335e-003
429.361,102.267, 9.1632e-003
430.507,102.613, 9.1932e-003
431.638,102.96, 9.2232e-003
432.347,103.177, 9.2419e-003