Folder: thermal-expansion/data/8.1mm

Note: data/8.1mm/albAmel001r2-9c.txt
EXPORTTYPE: DATA ALL
FILE: albAmel100rn2.ngb-cle
FORMAT: NETZSCH5
FTYPE: ANSI
IDENTITY: alb 100
DECIMAL: POINT
SEPARATOR: COMMA
MTYPE: DIL
INSTRUMENT: NETZSCH DIL 402C
PROJECT: feldspar
DATE/TIME: 8/14/2019 2:29:22 PM (UTC-5)
CORR. FILE: 
TEMPCAL: TCALZERO.TMX
LABORATORY: Mineral Physics
OPERATOR: PAG
REMARK: bare amel flat 2nd run
SAMPLE: albame100run2
SAMPLE LENGTH /mm: 9.6
MATERIAL: sapphire stnd
MEASMODE: Standard Expansion
PURGE GAS 1: ARGON
FLOW RATE 1 /(ml/min): 75
M.RANGE /µm: 500
CORR. CODE: 010
RANGE: 20.0°C/3.0(K/min)/600.0°C
SEGMENT: S1/1
SEG. 1: 20.0°C/3.0(K/min)/600.0°C

Note: data/8.1mm/albAmel001r19c.txt
EXPORTTYPE: DATA ALL
FILE: albAmel001run1.ngb-sle
FORMAT: NETZSCH5
FTYPE: ANSI
IDENTITY: amelia 100
DECIMAL: POINT
SEPARATOR: COMMA
MTYPE: DIL
INSTRUMENT: NETZSCH DIL 402C
PROJECT: feldspar
DATE/TIME: 8/13/2019 9:17:30 AM (UTC-5)
CORR. FILE: 
TEMPCAL: TCALZERO.TMX
LABORATORY: Mineral Physics
OPERATOR: PAG
REMARK: colorless amelia alb per to (010) & (001)
SAMPLE: albite
SAMPLE LENGTH /mm: 9.742
MATERIAL: sapphire stnd
MEASMODE: Standard Expansion
PURGE GAS 1: ARGON
FLOW RATE 1 /(ml/min): 75
M.RANGE /µm: 500
CORR. CODE: 010
RANGE: 20.0°C/3.0(K/min)/900.0°C
SEGMENT: S1/1
SEG. 1: 20.0°C/3.0(K/min)/900.0°C

Note: data/8.1mm/albAmel010sTr1-8x.txt
EXPORTTYPE: DATA ALL
FILE: albAmel010Trun1.ngb-sle
FORMAT: NETZSCH5
FTYPE: ANSI
IDENTITY: albite 010
DECIMAL: POINT
SEPARATOR: COMMA
MTYPE: DIL
INSTRUMENT: NETZSCH DIL 402C
PROJECT: feldspar
DATE/TIME: 8/22/2019 10:14:26 AM (UTC-5)
CORR. FILE: 
TEMPCAL: TCALZERO.TMX
LABORATORY: Mineral Physics
OPERATOR: PAG
REMARK: bare
SAMPLE: amelia twin
SAMPLE LENGTH /mm: 8.715
MATERIAL: sapphire stnd
MEASMODE: Standard Expansion
PURGE GAS 1: ARGON
FLOW RATE 1 /(ml/min): 75
M.RANGE /�m: 500
CORR. CODE: 10
RANGE: 20.0�C/3.0(K/min)/1020.0�C
SEGMENT: S1/1
SEG. 1: 20.0�C/3.0(K/min)/1020.0�C

Note: data/8.1mm/ExpDat_sapph8c.txt
EXPORTTYPE: DATA ALL
FILE: sapph8mm08192019.ngb-cle
FORMAT: NETZSCH5
FTYPE: ANSI
IDENTITY: sapphire 8 mm
DECIMAL: POINT
SEPARATOR: COMMA
MTYPE: DIL
INSTRUMENT: NETZSCH DIL 402C
PROJECT: feldspar
DATE/TIME: 8/19/2019 9:42:37 AM (UTC-5)
CORR. FILE: 
TEMPCAL: TCALZERO.TMX
LABORATORY: Mineral Physics
OPERATOR: PAG
REMARK: bare
SAMPLE: stnd saph 8
SAMPLE LENGTH /mm: 8.092
MATERIAL: sapphire stnd
MEASMODE: Standard Expansion
PURGE GAS 1: ARGON
FLOW RATE 1 /(ml/min): 75
M.RANGE /µm: 500
CORR. CODE: 010
RANGE: 20.0°C/3.0(K/min)/1100.0°C
SEGMENT: S1/1
SEG. 1: 20.0°C/3.0(K/min)/1100.0°C

Note: data/8.1mm/fmt010sCr18c.txt
EXPORTTYPE: DATA ALL
FILE: fmtl010Crun1.ngb-sle
FORMAT: NETZSCH5
FTYPE: ANSI
IDENTITY: fmt short
DECIMAL: POINT
SEPARATOR: COMMA
MTYPE: DIL
INSTRUMENT: NETZSCH DIL 402C
PROJECT: feldspar
DATE/TIME: 8/21/2019 9:53:35 AM (UTC-5)
CORR. FILE: 
TEMPCAL: TCALZERO.TMX
LABORATORY: Mineral Physics
OPERATOR: PAG
REMARK: bare
SAMPLE: fmt 3rd orientation
SAMPLE LENGTH /mm: 8.776
MATERIAL: sapphire stnd
MEASMODE: Standard Expansion
PURGE GAS 1: ARGON
FLOW RATE 1 /(ml/min): 75
M.RANGE /µm: 500
CORR. CODE: 010
RANGE: 20.0°C/3.0(K/min)/1010.0°C
SEGMENT: S1/1
SEG. 1: 20.0°C/3.0(K/min)/1010.0°C

Note: data/8.1mm/fmt100sBr1-10c.txt
EXPORTTYPE: DATA ALL
FILE: fmtl100Brun1.ngb-sle
FORMAT: NETZSCH5
FTYPE: ANSI
IDENTITY: fmt tall
DECIMAL: POINT
SEPARATOR: COMMA
MTYPE: DIL
INSTRUMENT: NETZSCH DIL 402C
PROJECT: feldspar
DATE/TIME: 8/17/2019 10:32:42 AM (UTC-5)
CORR. FILE: 
TEMPCAL: TCALZERO.TMX
LABORATORY: Mineral Physics
OPERATOR: PAG
REMARK: bare
SAMPLE: fmt100B
SAMPLE LENGTH /mm: 10.259
MATERIAL: sapphire stnd
MEASMODE: Standard Expansion
PURGE GAS 1: ARGON
FLOW RATE 1 /(ml/min): 75
M.RANGE /µm: 500
CORR. CODE: 010
RANGE: 20.0°C/3.0(K/min)/1000.0°C
SEGMENT: S1/1
SEG. 1: 20.0°C/3.0(K/min)/1000.0°C

Note: data/8.1mm/fmt100sBr2-10c.txt
EXPORTTYPE: DATA ALL
FILE: fmt100Brun2.ngb-sle
FORMAT: NETZSCH5
FTYPE: ANSI
IDENTITY: fmt100Brun2
DECIMAL: POINT
SEPARATOR: COMMA
MTYPE: DIL
INSTRUMENT: NETZSCH DIL 402C
PROJECT: feldspar
DATE/TIME: 8/18/2019 9:49:26 AM (UTC-5)
CORR. FILE: 
TEMPCAL: TCALZERO.TMX
LABORATORY: Mineral Physics
OPERATOR: PAG
REMARK: bare
SAMPLE: fmt100B
SAMPLE LENGTH /mm: 10.018
MATERIAL: sapphire stnd
MEASMODE: Standard Expansion
PURGE GAS 1: ARGON
FLOW RATE 1 /(ml/min): 75
M.RANGE /µm: 500
CORR. CODE: 010
RANGE: 20.0°C/3.0(K/min)/1000.0°C
SEGMENT: S1/1
SEG. 1: 20.0°C/3.0(K/min)/1000.0°C

Note: data/8.1mm/moon000s3r2-10c.txt
EXPORTTYPE: DATA ALL
FILE: moonstoneS3rn2.ngb-sle
FORMAT: NETZSCH5
FTYPE: ANSI
IDENTITY: moonstone 3 rerun
DECIMAL: POINT
SEPARATOR: COMMA
MTYPE: DIL
INSTRUMENT: NETZSCH DIL 402C
PROJECT: feldspar
DATE/TIME: 9/16/2019 3:22:44 PM (UTC-5)
CORR. FILE: 
TEMPCAL: TCALZERO.TMX
LABORATORY: Mineral Physics
OPERATOR: PAG
REMARK: bare
SAMPLE: moonstone 3 run#2
SAMPLE LENGTH /mm: 10.090
MATERIAL: sapphire stnd
MEASMODE: Standard Expansion
PURGE GAS 1: ARGON
FLOW RATE 1 /(ml/min): 75
M.RANGE /µm: 500
CORR. CODE: 010
RANGE: 20.0°C/3.0(K/min)/414.0°C
SEGMENT: S1/1
SEG. 1: 20.0°C/3.0(K/min)/414.0°C

Note: data/8.1mm/oligHawk001s1r1-7c.txt
EXPORTTYPE: DATA ALL
FILE: oligHawk001sam1.ngb-sle
FORMAT: NETZSCH5
FTYPE: ANSI
IDENTITY: hawkmine 001
DECIMAL: POINT
SEPARATOR: COMMA
MTYPE: DIL
INSTRUMENT: NETZSCH DIL 402C
PROJECT: feldspar
DATE/TIME: 8/23/2019 9:50:19 AM (UTC-5)
CORR. FILE: 
TEMPCAL: TCALZERO.TMX
LABORATORY: Mineral Physics
OPERATOR: PAG
REMARK: bare
SAMPLE: oligioclase hawk
SAMPLE LENGTH /mm: 7.035
MATERIAL: sapphire stnd
MEASMODE: Standard Expansion
PURGE GAS 1: ARGON
FLOW RATE 1 /(ml/min): 75
M.RANGE /µm: 500
CORR. CODE: 010
RANGE: 20.0°C/3.0(K/min)/1020.0°C
SEGMENT: S1/1
SEG. 1: 20.0°C/3.0(K/min)/1020.0°C

Note: data/8.1mm/oligHawk001s1r2-7x.txt
EXPORTTYPE: DATA ALL
FILE: oligHawk001s1r2.ngb-sle
FORMAT: NETZSCH5
FTYPE: ANSI
IDENTITY: oligoclase
DECIMAL: POINT
SEPARATOR: COMMA
MTYPE: DIL
INSTRUMENT: NETZSCH DIL 402C
PROJECT: feldspar
DATE/TIME: 8/23/2019 4:33:06 PM (UTC-5)
CORR. FILE: 
TEMPCAL: TCALZERO.TMX
LABORATORY: Mineral Physics
OPERATOR: PAG
REMARK: bare
SAMPLE: hawk mine 001 rerun
SAMPLE LENGTH /mm: 7.06
MATERIAL: sapphire stnd
MEASMODE: Standard Expansion
PURGE GAS 1: ARGON
FLOW RATE 1 /(ml/min): 75
M.RANGE /�m: 500
CORR. CODE: 10
RANGE: 20.0�C/3.0(K/min)/920.0�C
SEGMENT: S1/1
SEG. 1: 20.0�C/3.0(K/min)/920.0�C

Note: data/8.1mm/oligHawk001s1r5-7c.txt
EXPORTTYPE: DATA ALL
FILE: oligHawk001s1run5.ngb-sle
FORMAT: NETZSCH5
FTYPE: ANSI
IDENTITY: oligoclase hawk mine
DECIMAL: POINT
SEPARATOR: COMMA
MTYPE: DIL
INSTRUMENT: NETZSCH DIL 402C
PROJECT: feldspar
DATE/TIME: 8/27/2019 9:40:21 AM (UTC-5)
CORR. FILE: 
TEMPCAL: TCALZERO.TMX
LABORATORY: Mineral Physics
OPERATOR: PAG
REMARK: bare
SAMPLE: hawk 001 run5
SAMPLE LENGTH /mm: 6.991
MATERIAL: sapphire stnd
MEASMODE: Standard Expansion
PURGE GAS 1: ARGON
FLOW RATE 1 /(ml/min): 75
M.RANGE /µm: 500
CORR. CODE: 010
RANGE: 20.0°C/3.0(K/min)/1010.0°C
SEGMENT: S1/1
SEG. 1: 20.0°C/3.0(K/min)/1010.0°C

Note: data/8.1mm/oligHawk010s1r3-8x.txt
EXPORTTYPE: DATA ALL
FILE: oligHawk010s1r3.ngb-sle
FORMAT: NETZSCH5
FTYPE: ANSI
IDENTITY: oligioclase
DECIMAL: POINT
SEPARATOR: COMMA
MTYPE: DIL
INSTRUMENT: NETZSCH DIL 402C
PROJECT: feldspar
DATE/TIME: 8/24/2019 10:12:59 AM (UTC-5)
CORR. FILE: 
TEMPCAL: TCALZERO.TMX
LABORATORY: Mineral Physics
OPERATOR: PAG
REMARK: bare
SAMPLE: hawk mine 010
SAMPLE LENGTH /mm: 8.25
MATERIAL: sapphire stnd
MEASMODE: Standard Expansion
PURGE GAS 1: ARGON
FLOW RATE 1 /(ml/min): 75
M.RANGE /�m: 500
CORR. CODE: 10
RANGE: 20.0�C/3.0(K/min)/1010.0�C
SEGMENT: S1/1
SEG. 1: 20.0�C/3.0(K/min)/1010.0�C

Note: README.md
# thermal-expansion
Calculates linear and volume alphas from dilatometer data (Netzsch DIL-402c) by curve fitting

File: albAmel001r2-9.6mm.csv
#EXPORTTYPE:           ,DATA ALL
#FILE:                 ,albAmel100rn2.ngb-cle
#FORMAT:               ,NETZSCH5
#FTYPE:                ,ANSI
#IDENTITY:             ,alb 100
#DECIMAL:              ,POINT
#SEPARATOR:            ,COMMA
#MTYPE:                ,DIL
#INSTRUMENT:           ,NETZSCH DIL 402C
#PROJECT:              ,feldspar
#DATE/TIME:            ,8/14/2019 2:29:22 PM (UTC-5)
#CORR. FILE:           ,
#TEMPCAL:              ,TCALZERO.TMX
#LABORATORY:           ,Mineral Physics
#OPERATOR:             ,PAG
#REMARK:               ,bare amel flat 2nd run
#SAMPLE:               ,albame100run2
#SAMPLE LENGTH /mm:    ,9.6
#MATERIAL:             ,sapphire stnd
#MEASMODE:             ,Standard Expansion
#PURGE GAS 1:          ,ARGON
#FLOW RATE 1 /(ml/min):,75
#M.RANGE /µm:          ,500
#CORR. CODE:           ,010
#RANGE:                ,20.0°C/3.0(K/min)/600.0°C
#SEGMENT:              ,S1/1
#SEG. 1:               ,20.0°C/3.0(K/min)/600.0°C

##Temp./°C,Time/min,dL/Lo
 22.92400,  0.00000, 2.5149e-005
 22.89200,  0.54167, 2.8110e-005
 22.83400,  1.08333, 2.7253e-005
 22.77200,  1.62500, 2.4844e-005
 22.73200,  2.16667, 2.1849e-005
 22.68200,  2.70833, 1.8237e-005
 22.64700,  3.25000, 1.4835e-005
 22.70400,  3.79167, 1.0451e-005
 23.05300,  4.33333, 8.6283e-007
 23.90000,  4.87500,-1.3236e-005
 25.29600,  5.41667,-3.0472e-005
 27.20800,  5.95833,-4.8532e-005
 29.50600,  6.50000,-6.2296e-005
 32.07000,  7.04167,-6.8985e-005
 34.73400,  7.58333,-6.7209e-005
 37.44000,  8.12500,-6.0070e-005
 40.13400,  8.66667,-4.6773e-005
 42.81200,  9.20833,-3.0425e-005
 45.53400,  9.75000,-1.1127e-005
 48.27800, 10.29167, 9.8631e-006
 51.08300, 10.83333, 3.2292e-005
 53.92800, 11.37500, 5.6853e-005
 56.82900, 11.91667, 8.2621e-005
 59.74500, 12.45833, 1.1017e-004
 62.66000, 13.00000, 1.3980e-004
 65.59000, 13.54167, 1.7134e-004
 68.51700, 14.08333, 2.0473e-004
 71.42200, 14.62500, 2.3952e-004
 74.31900, 15.16667, 2.7516e-004
 77.19000, 15.70833, 3.1161e-004
 80.05900, 16.25000, 3.4871e-004
 82.90600, 16.79167, 3.8577e-004
 85.74300, 17.33333, 4.2326e-004
 88.55000, 17.87500, 4.6135e-004
 91.36100, 18.41667, 5.0670e-004
 94.14200, 18.95833, 5.4857e-004
 96.90800, 19.50000, 5.9016e-004
 99.65700, 20.04167, 6.3163e-004
102.392, 20.58333, 6.7459e-004
105.031, 21.12500, 7.1464e-004
107.713, 21.66667, 7.5509e-004
110.405, 22.20833, 7.9607e-004
113.096, 22.75000, 8.3753e-004
115.76, 23.29167, 8.7996e-004
118.409, 23.83333, 9.2242e-004
121.059, 24.37500, 9.6380e-004
123.693, 24.91667, 1.0052e-003
126.316, 25.45833, 1.0449e-003
128.929, 26.00000, 1.0864e-003
131.539, 26.54167, 1.1282e-003
134.143, 27.08333, 1.1702e-003
136.729, 27.62500, 1.2085e-003
139.331, 28.16667, 1.2503e-003
141.923, 28.70833, 1.2910e-003
144.491, 29.25000, 1.3302e-003
147.066, 29.79167, 1.3725e-003
149.615, 30.33333, 1.4123e-003
152.167, 30.87500, 1.4523e-003
154.716, 31.41667, 1.4948e-003
157.247, 31.95833, 1.5346e-003
159.757, 32.50000, 1.5735e-003
162.279, 33.04167, 1.6141e-003
164.792, 33.58333, 1.6535e-003
167.294, 34.12500, 1.6927e-003
169.792, 34.66667, 1.7336e-003
172.276, 35.20833, 1.7736e-003
174.749, 35.75000, 1.8138e-003
177.225, 36.29167, 1.8526e-003
179.686, 36.83333, 1.8926e-003
182.133, 37.37500, 1.9307e-003
184.583, 37.91667, 1.9722e-003
187.028, 38.45833, 2.0116e-003
189.473, 39.00000, 2.0504e-003
191.896, 39.54167, 2.0912e-003
194.327, 40.08333, 2.1294e-003
196.735, 40.62500, 2.1678e-003
199.14, 41.16667, 2.2078e-003
201.541, 41.70833, 2.2465e-003
203.94, 42.25000, 2.2860e-003
206.32, 42.79167, 2.3238e-003
208.694, 43.33333, 2.3620e-003
211.068, 43.87500, 2.4004e-003
213.435, 44.41667, 2.4390e-003
215.801, 44.95833, 2.4777e-003
218.148, 45.50000, 2.5142e-003
220.496, 46.04167, 2.5523e-003
222.846, 46.58333, 2.5917e-003
225.176, 47.12500, 2.6296e-003
227.505, 47.66667, 2.6673e-003
229.823, 48.20833, 2.7050e-003
232.119, 48.75000, 2.7432e-003
234.432, 49.29167, 2.7808e-003
236.739, 49.83333, 2.8194e-003
239.036, 50.37500, 2.8569e-003
241.304, 50.91667, 2.8943e-003
243.584, 51.45833, 2.9311e-003
245.864, 52.00000, 2.9684e-003
248.13, 52.54167, 3.0044e-003
250.377, 53.08333, 3.0426e-003
252.624, 53.62500, 3.0793e-003
254.871, 54.16667, 3.1169e-003
257.101, 54.70833, 3.1531e-003
259.342, 55.25000, 3.1899e-003
261.566, 55.79167, 3.2277e-003
263.776, 56.33333, 3.2640e-003
265.992, 56.87500, 3.3003e-003
268.195, 57.41667, 3.3377e-003
270.401, 57.95833, 3.3728e-003
272.592, 58.50000, 3.4093e-003
274.791, 59.04167, 3.4452e-003
276.969, 59.58333, 3.4815e-003
279.147, 60.12500, 3.5185e-003
281.3, 60.66667, 3.5514e-003
283.464, 61.20833, 3.5869e-003
285.616, 61.75000, 3.6222e-003
287.762, 62.29167, 3.6582e-003
289.904, 62.83333, 3.6918e-003
292.049, 63.37500, 3.7270e-003
294.176, 63.91667, 3.7615e-003
296.304, 64.45833, 3.7967e-003
298.43, 65.00000, 3.8316e-003
300.552, 65.54167, 3.8675e-003
302.652, 66.08333, 3.9009e-003
304.745, 66.62500, 3.9355e-003
306.853, 67.16667, 3.9688e-003
308.945, 67.70833, 4.0018e-003
311.033, 68.25000, 4.0360e-003
313.106, 68.79167, 4.0705e-003
315.184, 69.33333, 4.1041e-003
317.256, 69.87500, 4.1392e-003
319.323, 70.41667, 4.1714e-003
321.372, 70.95833, 4.2060e-003
323.43, 71.50000, 4.2399e-003
325.474, 72.04167, 4.2715e-003
327.508, 72.58333, 4.3088e-003
329.528, 73.12500, 4.3438e-003
331.523, 73.66667, 4.3753e-003
333.514, 74.20833, 4.4101e-003
335.514, 74.75000, 4.4428e-003
337.527, 75.29167, 4.4768e-003
339.564, 75.83333, 4.5085e-003
341.621, 76.37500, 4.5394e-003
343.701, 76.91667, 4.5713e-003
345.8, 77.45833, 4.6034e-003
347.879, 78.00000, 4.6361e-003
349.962, 78.54167, 4.6670e-003
352.029, 79.08333, 4.7031e-003
354.079, 79.62500, 4.7357e-003
356.107, 80.16667, 4.7704e-003
358.114, 80.70833, 4.8022e-003
360.123, 81.25000, 4.8359e-003
362.125, 81.79167, 4.8660e-003
364.105, 82.33333, 4.8990e-003
366.071, 82.87500, 4.9313e-003
368.034, 83.41667, 4.9644e-003
369.988, 83.95833, 4.9961e-003
371.924, 84.50000, 5.0273e-003
373.853, 85.04167, 5.0589e-003
375.788, 85.58333, 5.0881e-003
377.696, 86.12500, 5.1196e-003
379.621, 86.66667, 5.1501e-003
381.531, 87.20833, 5.1822e-003
383.424, 87.75000, 5.2130e-003
385.32, 88.29167, 5.2443e-003
387.202, 88.83333, 5.2743e-003
389.094, 89.37500, 5.3053e-003
390.978, 89.91667, 5.3340e-003
392.846, 90.45833, 5.3655e-003
394.72, 91.00000, 5.3954e-003
396.59, 91.54167, 5.4272e-003
398.461, 92.08333, 5.4563e-003
400.32, 92.62500, 5.4878e-003
402.178, 93.16667, 5.5167e-003
404.032, 93.70833, 5.5464e-003
405.88, 94.25000, 5.5753e-003
407.712, 94.79167, 5.6046e-003
409.567, 95.33333, 5.6351e-003
411.412, 95.87500, 5.6628e-003
413.256, 96.41667, 5.6931e-003
415.1, 96.95833, 5.7245e-003
416.923, 97.50000, 5.7562e-003
418.75, 98.04167, 5.7832e-003
420.571, 98.58333, 5.8102e-003
422.391, 99.12500, 5.8423e-003
424.208, 99.66667, 5.8713e-003
426.017,100.208, 5.9021e-003
427.827,100.75, 5.9319e-003
429.64,101.292, 5.9582e-003
431.441,101.833, 5.9869e-003
433.238,102.375, 6.0169e-003
435.049,102.917, 6.0481e-003
436.83,103.458, 6.0758e-003
438.619,104, 6.1033e-003
440.41,104.542, 6.1335e-003
442.202,105.083, 6.1599e-003
443.962,105.625, 6.1881e-003
445.736,106.167, 6.2172e-003
447.511,106.708, 6.2457e-003
449.274,107.25, 6.2762e-003
451.028,107.792, 6.3025e-003
452.792,108.333, 6.3317e-003
454.544,108.875, 6.3615e-003
456.318,109.417, 6.3877e-003
458.075,109.958, 6.4187e-003
459.824,110.5, 6.4461e-003
461.559,111.042, 6.4751e-003
463.313,111.583, 6.5035e-003
465.038,112.125, 6.5318e-003
466.765,112.667, 6.5577e-003
468.504,113.208, 6.5862e-003
470.238,113.75, 6.6141e-003
471.978,114.292, 6.6416e-003
473.699,114.833, 6.6681e-003
475.436,115.375, 6.6958e-003
477.153,115.917, 6.7238e-003
478.869,116.458, 6.7513e-003
480.576,117, 6.7791e-003
482.283,117.542, 6.8068e-003
483.973,118.083, 6.8337e-003
485.65,118.625, 6.8632e-003
487.309,119.167, 6.8916e-003
488.976,119.708, 6.9210e-003
490.646,120.25, 6.9473e-003
492.337,120.792, 6.9738e-003
494.059,121.333, 6.9996e-003
495.805,121.875, 7.0254e-003
497.568,122.417, 7.0502e-003
499.331,122.958, 7.0789e-003
501.095,123.5, 7.1064e-003
502.832,124.042, 7.1325e-003
504.566,124.583, 7.1623e-003
506.271,125.125, 7.1909e-003
507.977,125.667, 7.2179e-003
509.672,126.208, 7.2429e-003
511.361,126.75, 7.2698e-003
513.045,127.292, 7.2972e-003
514.723,127.833, 7.3242e-003
516.382,128.375, 7.3507e-003
518.05,128.917, 7.3785e-003
519.71,129.458, 7.4034e-003
521.354,130, 7.4310e-003
523.003,130.542, 7.4584e-003
524.651,131.083, 7.4843e-003
526.29,131.625, 7.5107e-003
527.916,132.167, 7.5369e-003
529.544,132.708, 7.5625e-003
531.171,133.25, 7.5886e-003
532.808,133.792, 7.6154e-003
534.432,134.333, 7.6415e-003
536.061,134.875, 7.6715e-003
537.669,135.417, 7.6958e-003
539.299,135.958, 7.7241e-003
540.905,136.5, 7.7484e-003
542.522,137.042, 7.7745e-003
544.126,137.583, 7.7992e-003
545.729,138.125, 7.8249e-003
547.323,138.667, 7.8521e-003
548.931,139.208, 7.8773e-003
550.535,139.75, 7.9033e-003
552.13,140.292, 7.9302e-003
553.744,140.833, 7.9557e-003
555.339,141.375, 7.9793e-003
556.941,141.917, 8.0076e-003
558.537,142.458, 8.0319e-003
560.127,143, 8.0580e-003
561.718,143.542, 8.0839e-003
563.309,144.083, 8.1085e-003
564.896,144.625, 8.1353e-003
566.486,145.167, 8.1605e-003
568.064,145.708, 8.1854e-003
569.646,146.25, 8.2111e-003
571.218,146.792, 8.2361e-003
572.806,147.333, 8.2618e-003
574.376,147.875, 8.2872e-003
575.95,148.417, 8.3118e-003
577.517,148.958, 8.3376e-003
579.095,149.5, 8.3625e-003
580.666,150.042, 8.3889e-003
582.232,150.583, 8.4127e-003
583.81,151.125, 8.4374e-003
585.372,151.667, 8.4638e-003
586.935,152.208, 8.4891e-003
588.494,152.75, 8.5145e-003
590.058,153.292, 8.5398e-003
591.601,153.833, 8.5645e-003
593.151,154.375, 8.5912e-003
594.685,154.917, 8.6172e-003
596.209,155.458, 8.6449e-003
597.722,156, 8.6701e-003
599.232,156.542, 8.6955e-003
600.751,157.083, 8.7179e-003
602.307,157.625, 8.7422e-003
603.885,158.167, 8.7684e-003
605.486,158.708, 8.7918e-003
607.085,159.25, 8.8166e-003
608.692,159.792, 8.8417e-003
609.899,160.203, 8.8604e-003