Folder: thermal-expansion/data/8.1mm (part 2)

File: albAmel010sTr1-8.7mm.csv
#EXPORTTYPE:           ,DATA ALL
#FILE:                 ,albAmel010Trun1.ngb-sle
#FORMAT:               ,NETZSCH5
#FTYPE:                ,ANSI
#IDENTITY:             ,albite 010
#DECIMAL:              ,POINT
#SEPARATOR:            ,COMMA
#MTYPE:                ,DIL
#INSTRUMENT:           ,NETZSCH DIL 402C
#PROJECT:              ,feldspar
#DATE/TIME:            ,8/22/2019 10:14:26 AM (UTC-5)
#CORR. FILE:           ,
#TEMPCAL:              ,TCALZERO.TMX
#LABORATORY:           ,Mineral Physics
#OPERATOR:             ,PAG
#REMARK:               ,bare, norm start, for short plageioclase, sapphire, amel alb 010 twin
#SAMPLE:               ,amelia twin
#SAMPLE LENGTH /mm:    ,8.715
#MATERIAL:             ,sapphire stnd
#MEASMODE:             ,Standard Expansion
#PURGE GAS 1:          ,ARGON
#FLOW RATE 1 /(ml/min):,75
#M.RANGE /µm:          ,500
#CORR. CODE:           ,010
#RANGE:                ,20.0°C/3.0(K/min)/1020.0°C
#SEGMENT:              ,S1/1
#SEG. 1:               ,20.0°C/3.0(K/min)/1020.0°C

##Temp./°C,Time/min,dL/Lo
  21.35100,  0.00000, 1.3908e-005
  24.85100,  5.36457,-5.4983e-005
  28.35100,  6.25585,-8.9865e-005
  31.85100,  7.02302,-1.0663e-004
  35.35100,  7.76022,-1.0624e-004
  38.85100,  8.49220,-9.5223e-005
  42.35100,  9.22073,-7.5103e-005
  45.85100,  9.93828,-5.2122e-005
  49.35100, 10.63545,-2.6517e-005
  52.85100, 11.31602, 1.6796e-006
  56.35100, 11.98442, 3.1806e-005
  59.85100, 12.64743, 6.3601e-005
  63.35100, 13.30671, 9.9706e-005
  66.85100, 13.96837, 1.3714e-004
  70.35100, 14.63173, 1.7717e-004
  73.85100, 15.29620, 2.1871e-004
  77.35100, 15.96417, 2.6071e-004
  80.85100, 16.63363, 3.0488e-004
  84.35100, 17.30973, 3.4854e-004
  87.85100, 17.98506, 3.9384e-004
  91.35100, 18.66845, 4.3900e-004
  94.85100, 19.35554, 4.8515e-004
  98.35100, 20.04840, 5.3155e-004
 101.851, 20.74687, 5.7859e-004
 105.351, 21.44734, 6.2653e-004
 108.851, 22.15122, 6.7492e-004
 112.351, 22.86288, 7.2292e-004
 115.851, 23.57338, 7.7179e-004
 119.351, 24.28969, 8.2077e-004
 122.851, 25.01009, 8.7005e-004
 126.351, 25.73445, 9.1937e-004
 129.851, 26.46060, 9.6944e-004
 133.351, 27.19139, 1.0187e-003
 136.851, 27.92648, 1.0688e-003
 140.351, 28.66414, 1.1191e-003
 143.851, 29.40282, 1.1693e-003
 147.351, 30.14486, 1.2196e-003
 150.851, 30.88954, 1.2703e-003
 154.351, 31.63760, 1.3210e-003
 157.851, 32.39111, 1.3716e-003
 161.351, 33.14453, 1.4224e-003
 164.851, 33.90236, 1.4733e-003
 168.351, 34.66224, 1.5242e-003
 171.851, 35.42579, 1.5754e-003
 175.351, 36.19459, 1.6271e-003
 178.851, 36.96496, 1.6795e-003
 182.351, 37.73868, 1.7341e-003
 185.851, 38.51582, 1.7850e-003
 189.351, 39.29804, 1.8379e-003
 192.851, 40.08005, 1.8904e-003
 196.351, 40.86448, 1.9438e-003
 199.851, 41.65534, 1.9968e-003
 203.351, 42.45113, 2.0506e-003
 206.851, 43.24707, 2.1042e-003
 210.351, 44.04610, 2.1575e-003
 213.851, 44.85072, 2.2109e-003
 217.351, 45.65561, 2.2640e-003
 220.851, 46.46609, 2.3178e-003
 224.351, 47.28066, 2.3723e-003
 227.851, 48.10136, 2.4323e-003
 231.351, 48.91978, 2.4889e-003
 234.851, 49.74461, 2.5432e-003
 238.351, 50.57412, 2.6014e-003
 241.851, 51.41108, 2.6615e-003
 245.351, 52.25616, 2.7233e-003
 248.851, 53.10424, 2.7830e-003
 252.351, 53.95179, 2.8373e-003
 255.851, 54.78910, 2.8909e-003
 259.351, 55.61256, 2.9431e-003
 262.851, 56.42769, 2.9976e-003
 266.351, 57.24404, 3.0502e-003
 269.851, 58.06985, 3.1058e-003
 273.351, 58.90710, 3.1629e-003
 276.851, 59.75171, 3.2204e-003
 280.351, 60.60564, 3.2778e-003
 283.851, 61.47044, 3.3375e-003
 287.351, 62.34090, 3.3943e-003
 290.851, 63.22043, 3.4535e-003
 294.351, 64.10567, 3.5123e-003
 297.851, 65.00097, 3.5770e-003
 301.351, 65.90131, 3.6350e-003
 304.851, 66.80486, 3.6984e-003
 308.351, 67.71570, 3.7561e-003
 311.851, 68.63111, 3.8132e-003
 315.351, 69.55106, 3.8742e-003
 318.851, 70.47526, 3.9332e-003
 322.351, 71.40215, 3.9911e-003
 325.851, 72.33592, 4.0496e-003
 329.351, 73.27145, 4.1082e-003
 332.851, 74.21240, 4.1660e-003
 336.351, 75.15487, 4.2223e-003
 339.851, 76.10167, 4.2787e-003
 343.351, 77.05151, 4.3363e-003
 346.851, 78.00460, 4.3957e-003
 350.351, 78.96245, 4.4547e-003
 353.851, 79.92309, 4.5113e-003
 357.351, 80.88940, 4.5693e-003
 360.851, 81.85719, 4.6279e-003
 364.351, 82.83110, 4.6858e-003
 367.851, 83.80827, 4.7442e-003
 371.351, 84.79088, 4.8020e-003
 374.851, 85.77779, 4.8610e-003
 378.351, 86.76671, 4.9195e-003
 381.851, 87.75864, 4.9796e-003
 385.351, 88.75438, 5.0380e-003
 388.851, 89.75313, 5.0977e-003
 392.351, 90.75748, 5.1570e-003
 395.851, 91.77026, 5.2161e-003
 399.351, 92.77978, 5.2755e-003
 402.851, 93.79672, 5.3350e-003
 406.351, 94.81681, 5.3947e-003
 409.851, 95.84008, 5.4567e-003
 413.351, 96.86822, 5.5173e-003
 416.851, 97.90060, 5.5781e-003
 420.351, 98.93542, 5.6378e-003
 423.851, 99.97562, 5.6986e-003
 427.351,101.017, 5.7614e-003
 430.851,102.068, 5.8224e-003
 434.351,103.126, 5.8867e-003
 437.851,104.205, 5.9528e-003
 441.351,105.279, 6.0165e-003
 444.851,106.325, 6.0758e-003
 448.351,107.349, 6.1352e-003
 451.851,108.368, 6.1983e-003
 455.351,109.396, 6.2652e-003
 458.851,110.441, 6.3346e-003
 462.351,111.498, 6.4047e-003
 465.851,112.566, 6.4988e-003
 469.351,113.641, 6.5940e-003
 472.851,114.73, 6.6651e-003
 476.351,115.827, 6.7438e-003
 479.851,116.929, 6.8272e-003
 483.351,118.038, 6.8994e-003
 486.851,119.15, 6.9698e-003
 490.351,120.267, 7.0424e-003
 493.851,121.39, 7.1091e-003
 497.351,122.52, 7.1757e-003
 500.851,123.649, 7.2481e-003
 504.351,124.783, 7.3146e-003
 507.851,125.915, 7.3867e-003
 511.351,127.054, 7.4532e-003
 514.851,128.197, 7.5198e-003
 518.351,129.344, 7.5914e-003
 521.851,130.49, 7.6600e-003
 525.351,131.636, 7.7265e-003
 528.851,132.79, 7.7939e-003
 532.351,133.947, 7.8656e-003
 535.851,135.106, 7.9488e-003
 539.351,136.266, 8.0249e-003
 542.851,137.433, 8.0946e-003
 546.351,138.606, 8.1637e-003
 549.851,139.776, 8.2324e-003
 553.351,140.949, 8.3044e-003
 556.851,142.131, 8.3774e-003
 560.351,143.333, 8.4523e-003
 563.851,144.544, 8.5251e-003
 567.351,145.721, 8.5930e-003
 570.851,146.871, 8.6590e-003
 574.351,148.017, 8.7278e-003
 577.851,149.181, 8.7967e-003
 581.351,150.355, 8.8658e-003
 584.851,151.541, 8.9361e-003
 588.351,152.74, 9.0036e-003
 591.851,153.944, 9.0752e-003
 595.351,155.158, 9.1462e-003
 598.851,156.371, 9.2165e-003
 602.351,157.59, 9.2902e-003
 605.851,158.824, 9.3579e-003
 609.351,160.053, 9.4278e-003
 612.851,161.287, 9.4992e-003
 616.351,162.525, 9.5732e-003
 619.851,163.76, 9.6493e-003
 623.351,165.001, 9.7220e-003
 626.851,166.243, 9.7953e-003
 630.351,167.485, 9.8697e-003
 633.851,168.731, 9.9410e-003
 637.351,169.978, 1.0009e-002
 640.851,171.231, 1.0079e-002
 644.351,172.487, 1.0149e-002
 647.851,173.745, 1.0219e-002
 651.351,175.024, 1.0292e-002
 654.851,176.322, 1.0364e-002
 658.351,177.586, 1.0432e-002
 661.851,178.816, 1.0498e-002
 665.351,180.049, 1.0569e-002
 668.851,181.297, 1.0642e-002
 672.351,182.551, 1.0712e-002
 675.851,183.822, 1.0782e-002
 679.351,185.101, 1.0853e-002
 682.851,186.389, 1.0923e-002
 686.351,187.684, 1.0995e-002
 689.851,188.982, 1.1064e-002
 693.351,190.291, 1.1134e-002
 696.851,191.609, 1.1204e-002
 700.351,192.938, 1.1278e-002
 703.851,194.275, 1.1352e-002
 707.351,195.609, 1.1429e-002
 710.851,196.951, 1.1502e-002
 714.351,198.291, 1.1576e-002
 717.851,199.629, 1.1652e-002
 721.351,200.966, 1.1727e-002
 724.851,202.315, 1.1805e-002
 728.351,203.697, 1.1886e-002
 731.851,205.063, 1.1960e-002
 735.351,206.38, 1.2033e-002
 738.851,207.68, 1.2107e-002
 742.351,208.992, 1.2185e-002
 745.851,210.31, 1.2262e-002
 749.351,211.641, 1.2337e-002
 752.851,212.976, 1.2415e-002
 756.351,214.31, 1.2493e-002
 759.851,215.654, 1.2566e-002
 763.351,216.994, 1.2639e-002
 766.851,218.343, 1.2716e-002
 770.351,219.695, 1.2791e-002
 773.851,221.043, 1.2871e-002
 777.351,222.391, 1.2946e-002
 780.851,223.741, 1.3021e-002
 784.351,225.096, 1.3094e-002
 787.851,226.458, 1.3171e-002
 791.351,227.846, 1.3252e-002
 794.851,229.34, 1.3334e-002
 798.351,230.832, 1.3411e-002
 801.851,232.321, 1.3488e-002
 805.351,233.764, 1.3562e-002
 808.851,235.24, 1.3642e-002
 812.351,236.729, 1.3716e-002
 815.851,238.205, 1.3791e-002
 819.351,239.62, 1.3860e-002
 822.851,241.021, 1.3935e-002
 826.351,242.43, 1.4009e-002
 829.851,243.836, 1.4085e-002
 833.351,245.218, 1.4157e-002
 836.851,246.597, 1.4234e-002
 840.351,247.959, 1.4308e-002
 843.851,249.312, 1.4382e-002
 847.351,250.663, 1.4456e-002
 850.851,252.045, 1.4533e-002
 854.351,253.426, 1.4613e-002
 857.851,254.772, 1.4689e-002
 861.351,256.088, 1.4767e-002
 864.851,257.401, 1.4843e-002
 868.351,258.727, 1.4922e-002
 871.851,260.061, 1.5000e-002
 875.351,261.414, 1.5082e-002
 878.851,262.788, 1.5167e-002
 882.351,264.203, 1.5256e-002
 885.851,265.583, 1.5347e-002
 889.351,266.874, 1.5435e-002
 892.851,268.303, 1.5534e-002
 896.351,269.72, 1.5623e-002
 899.851,271.147, 1.5711e-002
 903.351,272.707, 1.5802e-002
 906.851,274.266, 1.5890e-002
 910.351,275.772, 1.5976e-002
 913.851,277.337, 1.6065e-002
 917.351,279.061, 1.6161e-002
 920.851,280.776, 1.6243e-002
 924.351,282.17, 1.6326e-002
 927.851,283.504, 1.6408e-002
 931.351,284.89, 1.6496e-002
 934.851,286.257, 1.6590e-002
 938.351,287.627, 1.6683e-002
 941.851,288.94, 1.6777e-002
 945.351,290.292, 1.6874e-002
 948.851,291.638, 1.6968e-002
 952.351,292.96, 1.7066e-002
 955.851,294.284, 1.7171e-002
 959.351,295.597, 1.7274e-002
 962.851,296.899, 1.7379e-002
 966.351,298.178, 1.7481e-002
 969.851,299.481, 1.7591e-002
 973.351,300.719, 1.7697e-002
 976.851,302.02, 1.7821e-002
 980.351,303.26, 1.7939e-002
 983.851,304.547, 1.8071e-002
 987.351,305.844, 1.8220e-002
 990.851,307.097, 1.8366e-002
 994.351,308.382, 1.8523e-002
 997.851,309.658, 1.8675e-002
1001.35,310.965, 1.8853e-002
1004.85,312.326, 1.9035e-002
1008.35,313.646, 1.9209e-002
1011.85,314.92, 1.9372e-002
1015.35,316.199, 1.9542e-002
1018.85,317.503, 1.9716e-002
1019.85,317.877, 1.9766e-002

File: fmt100sBr1-10.3mm.csv
#EXPORTTYPE:           ,DATA ALL
#FILE:                 ,fmtl100Brun1.ngb-sle
#FORMAT:               ,NETZSCH5
#FTYPE:                ,ANSI
#IDENTITY:             ,fmt tall
#DECIMAL:              ,POINT
#SEPARATOR:            ,COMMA
#MTYPE:                ,DIL
#INSTRUMENT:           ,NETZSCH DIL 402C
#PROJECT:              ,feldspar
#DATE/TIME:            ,8/17/2019 10:32:42 AM (UTC-5)
#CORR. FILE:           ,
#TEMPCAL:              ,TCALZERO.TMX
#LABORATORY:           ,Mineral Physics
#OPERATOR:             ,PAG
#REMARK:               ,bare, norm start, for oligoclase fmt tall
#SAMPLE:               ,fmt100B
#SAMPLE LENGTH /mm:    ,10.259
#MATERIAL:             ,sapphire stnd
#MEASMODE:             ,Standard Expansion
#PURGE GAS 1:          ,ARGON
#FLOW RATE 1 /(ml/min):,75
#M.RANGE /µm:          ,500
#CORR. CODE:           ,010
#RANGE:                ,20.0°C/3.0(K/min)/1000.0°C
#SEGMENT:              ,S1/1
#SEG. 1:               ,20.0°C/3.0(K/min)/1000.0°C

##Temp./°C,Time/min,dL/Lo
 21.96200,  0.00000, 1.8752e-005
 23.46200,  4.83690,-8.0046e-006
 24.96200,  5.39636,-2.5506e-005
 26.46200,  5.82779,-3.9614e-005
 27.96200,  6.20229,-5.0725e-005
 29.46200,  6.54625,-5.9303e-005
 30.96200,  6.87380,-6.4798e-005
 32.46200,  7.19186,-6.8593e-005
 33.96200,  7.50478,-7.0379e-005
 35.46200,  7.81533,-7.0148e-005
 36.96200,  8.12431,-6.7562e-005
 38.46200,  8.43275,-6.3449e-005
 39.96200,  8.74080,-5.8504e-005
 41.46200,  9.04845,-5.2980e-005
 42.96200,  9.35468,-4.5992e-005
 44.46200,  9.65876,-3.8703e-005
 45.96200,  9.96061,-3.0841e-005
 47.46200, 10.25939,-2.3144e-005
 48.96200, 10.55461,-1.5101e-005
 50.46200, 10.84705,-6.3478e-006
 51.96200, 11.13749, 2.9519e-006
 53.46200, 11.42490, 1.2278e-005
 54.96200, 11.71031, 2.1804e-005
 56.46200, 11.99486, 3.2118e-005
 57.96200, 12.27817, 4.3044e-005
 59.46200, 12.55984, 5.4131e-005
 60.96200, 12.84116, 6.5324e-005
 62.46200, 13.12255, 7.7185e-005
 63.96200, 13.40397, 8.9281e-005
 65.46200, 13.68494, 1.0190e-004
 66.96200, 13.96625, 1.1499e-004
 68.46200, 14.24933, 1.2849e-004
 69.96200, 14.53328, 1.4161e-004
 71.46200, 14.81669, 1.5580e-004
 72.96200, 15.10029, 1.6923e-004
 74.46200, 15.38460, 1.8367e-004
 75.96200, 15.67013, 1.9835e-004
 77.46200, 15.95616, 2.1319e-004
 78.96200, 16.24251, 2.2796e-004
 80.46200, 16.52976, 2.4305e-004
 81.96200, 16.81872, 2.5770e-004
 83.46200, 17.10905, 2.7346e-004
 84.96200, 17.39936, 2.8872e-004
 86.46200, 17.69011, 3.0407e-004
 87.96200, 17.98111, 3.1982e-004
 89.46200, 18.27310, 3.3584e-004
 90.96200, 18.56670, 3.5141e-004
 92.46200, 18.86075, 3.6736e-004
 93.96200, 19.15553, 3.8341e-004
 95.46200, 19.45178, 3.9955e-004
 96.96200, 19.74848, 4.1589e-004
 98.46200, 20.04687, 4.3217e-004
 99.96200, 20.34639, 4.4848e-004
101.462, 20.64656, 4.6485e-004
102.962, 20.94674, 4.8124e-004
104.462, 21.24639, 4.9787e-004
105.962, 21.54657, 5.1397e-004
107.462, 21.84861, 5.3062e-004
108.962, 22.15245, 5.4661e-004
110.462, 22.45756, 5.6387e-004
111.962, 22.76255, 5.8010e-004
113.462, 23.06807, 5.9697e-004
114.962, 23.37410, 6.1411e-004
116.462, 23.68041, 6.3038e-004
117.962, 23.98709, 6.4722e-004
119.462, 24.29473, 6.6340e-004
120.962, 24.60319, 6.8004e-004
122.462, 24.91212, 6.9649e-004
123.962, 25.22074, 7.1338e-004
125.462, 25.53075, 7.3031e-004
126.962, 25.84196, 7.4685e-004
128.462, 26.15386, 7.6366e-004
129.962, 26.46572, 7.8025e-004
131.462, 26.77782, 7.9687e-004
132.962, 27.09086, 8.1320e-004
134.462, 27.40475, 8.3042e-004
135.962, 27.71973, 8.4698e-004
137.462, 28.03542, 8.6412e-004
138.962, 28.35148, 8.8079e-004
140.462, 28.66794, 8.9724e-004
141.962, 28.98530, 9.1418e-004
143.462, 29.30314, 9.3039e-004
144.962, 29.62091, 9.4767e-004
146.462, 29.93879, 9.6410e-004
147.962, 30.25764, 9.8054e-004
149.462, 30.57713, 9.9702e-004
150.962, 30.89572, 1.0142e-003
152.462, 31.21423, 1.0306e-003
153.962, 31.53469, 1.0471e-003
155.462, 31.85667, 1.0635e-003
156.962, 32.17884, 1.0798e-003
158.462, 32.50149, 1.0961e-003
159.962, 32.82493, 1.1123e-003
161.462, 33.14933, 1.1286e-003
162.962, 33.47381, 1.1449e-003
164.462, 33.79845, 1.1617e-003
165.962, 34.12380, 1.1781e-003
167.462, 34.44950, 1.1944e-003
168.962, 34.77515, 1.2107e-003
170.462, 35.10137, 1.2271e-003
171.962, 35.42908, 1.2435e-003
173.462, 35.75758, 1.2588e-003
174.962, 36.08649, 1.2761e-003
176.462, 36.41589, 1.2928e-003
177.962, 36.74637, 1.3077e-003
179.462, 37.07854, 1.3241e-003
180.962, 37.41121, 1.3408e-003
182.462, 37.74340, 1.3560e-003
183.962, 38.07593, 1.3735e-003
185.462, 38.40905, 1.3909e-003
186.962, 38.74256, 1.4063e-003
188.462, 39.07721, 1.4223e-003
189.962, 39.41253, 1.4395e-003
191.462, 39.74779, 1.4564e-003
192.962, 40.08319, 1.4742e-003
194.462, 40.41881, 1.4916e-003
195.962, 40.75445, 1.5086e-003
197.462, 41.09055, 1.5270e-003
198.962, 41.42812, 1.5438e-003
200.462, 41.76740, 1.5627e-003
201.962, 42.10779, 1.5814e-003
203.462, 42.44862, 1.6006e-003
204.962, 42.78982, 1.6211e-003
206.462, 43.13137, 1.6420e-003
207.962, 43.47241, 1.6628e-003
209.462, 43.81369, 1.6829e-003
210.962, 44.15662, 1.7046e-003
212.462, 44.50056, 1.7258e-003
213.962, 44.84511, 1.7477e-003
215.462, 45.18892, 1.7696e-003
216.962, 45.53257, 1.7920e-003
218.462, 45.87812, 1.8139e-003
219.962, 46.22567, 1.8368e-003
221.462, 46.57307, 1.8596e-003
222.962, 46.92004, 1.8833e-003
224.462, 47.26762, 1.9072e-003
225.962, 47.61663, 1.9308e-003
227.462, 47.96620, 1.9544e-003
228.962, 48.31610, 1.9784e-003
230.462, 48.66663, 2.0018e-003
231.962, 49.01761, 2.0255e-003
233.462, 49.36942, 2.0496e-003
234.962, 49.72171, 2.0731e-003
236.462, 50.07432, 2.0971e-003
237.962, 50.42757, 2.1212e-003
239.462, 50.78156, 2.1455e-003
240.962, 51.13702, 2.1700e-003
242.462, 51.49384, 2.1942e-003
243.962, 51.85115, 2.2181e-003
245.462, 52.20788, 2.2425e-003
246.962, 52.56471, 2.2668e-003
248.462, 52.92280, 2.2907e-003
249.962, 53.28184, 2.3147e-003
251.462, 53.64176, 2.3390e-003
252.962, 54.00231, 2.3624e-003
254.462, 54.36397, 2.3856e-003
255.962, 54.72651, 2.4092e-003
257.462, 55.09044, 2.4330e-003
258.962, 55.45463, 2.4573e-003
260.462, 55.81834, 2.4814e-003
261.962, 56.18360, 2.5055e-003
263.462, 56.54966, 2.5297e-003
264.962, 56.91623, 2.5533e-003
266.462, 57.28341, 2.5772e-003
267.962, 57.65108, 2.6009e-003
269.462, 58.02035, 2.6250e-003
270.962, 58.39077, 2.6482e-003
272.462, 58.76027, 2.6718e-003
273.962, 59.13042, 2.6961e-003
275.462, 59.50245, 2.7195e-003
276.962, 59.87501, 2.7437e-003
278.462, 60.24796, 2.7673e-003
279.962, 60.62219, 2.7914e-003
281.462, 60.99716, 2.8151e-003
282.962, 61.37199, 2.8392e-003
284.462, 61.74884, 2.8626e-003
285.962, 62.12713, 2.8861e-003
287.462, 62.50600, 2.9097e-003
288.962, 62.88572, 2.9335e-003
290.462, 63.26567, 2.9567e-003
291.962, 63.64624, 2.9803e-003
293.462, 64.02794, 3.0033e-003
294.962, 64.40967, 3.0268e-003
296.462, 64.79094, 3.0503e-003
297.962, 65.17315, 3.0733e-003
299.462, 65.55724, 3.0966e-003
300.962, 65.94284, 3.1198e-003
302.462, 66.32909, 3.1436e-003
303.962, 66.71535, 3.1665e-003
305.462, 67.10184, 3.1893e-003
306.962, 67.48923, 3.2128e-003
308.462, 67.87736, 3.2350e-003
309.962, 68.26593, 3.2578e-003
311.462, 68.65503, 3.2802e-003
312.962, 69.04564, 3.3017e-003
314.462, 69.43727, 3.3237e-003
315.962, 69.82879, 3.3451e-003
317.462, 70.22158, 3.3646e-003
318.962, 70.61665, 3.3854e-003
320.462, 71.01154, 3.4057e-003
321.962, 71.40714, 3.4263e-003
323.462, 71.80426, 3.4472e-003
324.962, 72.20101, 3.4695e-003
326.462, 72.59878, 3.4908e-003
327.962, 72.99783, 3.5115e-003
329.462, 73.39670, 3.5330e-003
330.962, 73.79642, 3.5531e-003
332.462, 74.19762, 3.5744e-003
333.962, 74.59807, 3.5952e-003
335.462, 74.99991, 3.6148e-003
336.962, 75.40217, 3.6360e-003
338.462, 75.80629, 3.6558e-003
339.962, 76.21391, 3.6755e-003
341.462, 76.62388, 3.6953e-003
342.962, 77.03361, 3.7158e-003
344.462, 77.44439, 3.7364e-003
345.962, 77.85724, 3.7567e-003
347.462, 78.27075, 3.7784e-003
348.962, 78.68137, 3.7973e-003
350.462, 79.08919, 3.8158e-003
351.962, 79.49455, 3.8333e-003
353.462, 79.89496, 3.8500e-003
354.962, 80.29081, 3.8674e-003
356.462, 80.68394, 3.8845e-003
357.962, 81.07683, 3.9025e-003
359.462, 81.47025, 3.9198e-003
360.962, 81.86567, 3.9373e-003
362.462, 82.26318, 3.9552e-003
363.962, 82.66251, 3.9725e-003
365.462, 83.06373, 3.9909e-003
366.962, 83.46779, 4.0088e-003
368.462, 83.87428, 4.0264e-003
369.962, 84.28218, 4.0447e-003
371.462, 84.69253, 4.0628e-003
372.962, 85.10467, 4.0813e-003
374.462, 85.51917, 4.0991e-003
375.962, 85.93630, 4.1179e-003
377.462, 86.35383, 4.1360e-003
378.962, 86.77124, 4.1546e-003
380.462, 87.19052, 4.1704e-003
381.962, 87.61082, 4.1879e-003
383.462, 88.03351, 4.2066e-003
384.962, 88.45949, 4.2129e-003
386.462, 88.88757, 4.2354e-003
387.962, 89.31550, 4.2548e-003
389.462, 89.74507, 4.2731e-003
390.962, 90.17540, 4.2921e-003
392.462, 90.60776, 4.3107e-003
393.962, 91.04021, 4.3281e-003
395.462, 91.47260, 4.3463e-003
396.962, 91.90725, 4.3650e-003
398.462, 92.34197, 4.3797e-003
399.962, 92.77770, 4.3984e-003
401.462, 93.21451, 4.4171e-003
402.962, 93.65249, 4.4357e-003
404.462, 94.09057, 4.4541e-003
405.962, 94.52874, 4.4711e-003
407.462, 94.96989, 4.4900e-003
408.962, 95.41175, 4.5091e-003
410.462, 95.85571, 4.5256e-003
411.962, 96.29875, 4.5442e-003
413.462, 96.74083, 4.5627e-003
414.962, 97.18484, 4.5806e-003
416.462, 97.62933, 4.5998e-003
417.962, 98.07324, 4.6164e-003
419.462, 98.51867, 4.6341e-003
420.962, 98.96423, 4.6529e-003
422.462, 99.41019, 4.6704e-003
423.962, 99.85719, 4.6878e-003
425.462,100.304, 4.7075e-003
426.962,100.753, 4.7254e-003
428.462,101.202, 4.7427e-003
429.962,101.652, 4.7620e-003
430.962,101.952, 4.7192e-003