Folder: thermal-expansion/data/8.1mm (part 5)

File: oligTanz100s1r1-8.5mm.csv
#EXPORTTYPE:           ,DATA ALL
#FILE:                 ,oligTanz100s1r1.ngb-sle
#FORMAT:               ,NETZSCH5
#FTYPE:                ,ANSI
#IDENTITY:             ,sunstone
#DECIMAL:              ,POINT
#SEPARATOR:            ,COMMA
#MTYPE:                ,DIL
#INSTRUMENT:           ,NETZSCH DIL 402C
#PROJECT:              ,feldspar
#DATE/TIME:            ,8/25/2019 12:13:46 PM (UTC-5)
#CORR. FILE:           ,
#TEMPCAL:              ,TCALZERO.TMX
#LABORATORY:           ,Mineral Physics
#OPERATOR:             ,PAG
#REMARK:               ,bare, norm start, for short plageioclase, sapphire stnd, green sunstone from tanzania 001*
#SAMPLE:               ,green 100*
#SAMPLE LENGTH /mm:    ,8.489
#MATERIAL:             ,sapphire stnd
#MEASMODE:             ,Standard Expansion
#PURGE GAS 1:          ,ARGON
#FLOW RATE 1 /(ml/min):,75
#M.RANGE /µm:          ,500
#CORR. CODE:           ,010
#RANGE:                ,20.0°C/3.0(K/min)/1030.0°C
#SEGMENT:              ,S1/1
#SEG. 1:               ,20.0°C/3.0(K/min)/1030.0°C

##Temp./°C,Time/min,dL/Lo,Alpha/(1/K)
  19.02100,  0.00000,-1.3971e-006, 2.2671e-005
  24.02100,  4.73379,-6.7057e-005,-8.0313e-006
  29.02100,  5.83593,-8.8607e-005,-1.8225e-006
  34.02100,  6.84166,-1.4167e-004,-3.0926e-005
  39.02100,  7.83770,-3.4369e-004,-2.6950e-005
  44.02100,  8.82345,-4.0648e-004,-9.6770e-008
  49.02100,  9.78328,-3.8652e-004, 5.1602e-006
  54.02100, 10.72115,-3.5359e-004, 7.2236e-006
  59.02100, 11.65092,-3.1447e-004, 8.5453e-006
  64.02100, 12.58325,-2.6883e-004, 9.7421e-006
  69.02100, 13.52055,-2.1856e-004, 1.0445e-005
  74.02100, 14.46760,-1.6427e-004, 1.0988e-005
  79.02100, 15.41890,-1.0814e-004, 1.1942e-005
  84.02100, 16.37819,-4.9600e-005, 1.2233e-005
  89.02100, 17.34626, 1.0681e-005, 1.2300e-005
  94.02100, 18.33066, 7.3278e-005, 1.2337e-005
  99.02100, 19.32233, 1.3689e-004, 1.2539e-005
 104.021, 20.32406, 2.0083e-004, 1.2843e-005
 109.021, 21.33480, 2.6620e-004, 1.3668e-005
 114.021, 22.35464, 3.3194e-004, 1.2843e-005
 119.021, 23.38728, 3.9889e-004, 1.3288e-005
 124.021, 24.42587, 4.6608e-004, 1.3913e-005
 129.021, 25.46887, 5.3207e-004, 1.3632e-005
 134.021, 26.51988, 5.9861e-004, 1.2382e-005
 139.021, 27.57934, 6.6642e-004, 1.2839e-005
 144.021, 28.64605, 7.3416e-004, 1.2339e-005
 149.021, 29.71959, 8.0336e-004, 1.4064e-005
 154.021, 30.79793, 8.7211e-004, 1.3956e-005
 159.021, 31.88147, 9.4123e-004, 1.3915e-005
 164.021, 32.97275, 1.0100e-003, 1.3683e-005
 169.021, 34.06812, 1.0801e-003, 1.4250e-005
 174.021, 35.16961, 1.1499e-003, 1.3809e-005
 179.021, 36.27785, 1.2171e-003, 1.4483e-005
 184.021, 37.39081, 1.2868e-003, 1.1559e-005
 189.021, 38.50947, 1.3563e-003, 1.3962e-005
 194.021, 39.63847, 1.4263e-003, 1.2683e-005
 199.021, 40.77196, 1.4951e-003, 1.3345e-005
 204.021, 41.91074, 1.5652e-003, 1.2218e-005
 209.021, 43.05657, 1.6349e-003, 1.2980e-005
 214.021, 44.21039, 1.7020e-003, 1.3885e-005
 219.021, 45.37006, 1.7700e-003, 1.4055e-005
 224.021, 46.53892, 1.8399e-003, 1.4605e-005
 229.021, 47.71240, 1.9093e-003, 1.4947e-005
 234.021, 48.89385, 1.9805e-003, 1.4400e-005
 239.021, 50.08354, 2.0510e-003, 1.4096e-005
 244.021, 51.28068, 2.1215e-003, 1.4348e-005
 249.021, 52.48311, 2.1926e-003, 1.3531e-005
 254.021, 53.69353, 2.2617e-003, 1.3863e-005
 259.021, 54.91473, 2.3322e-003, 1.4347e-005
 264.021, 56.14334, 2.4020e-003, 1.5171e-005
 269.021, 57.38174, 2.4721e-003, 1.4225e-005
 274.021, 58.62479, 2.5428e-003, 1.4180e-005
 279.021, 59.87772, 2.6129e-003, 1.4123e-005
 284.021, 61.13679, 2.6829e-003, 1.4188e-005
 289.021, 62.40420, 2.7525e-003, 1.3825e-005
 294.021, 63.68276, 2.8234e-003, 1.3773e-005
 299.021, 64.96697, 2.8944e-003, 1.4542e-005
 304.021, 66.25946, 2.9657e-003, 1.4251e-005
 309.021, 67.55848, 3.0356e-003, 1.4098e-005
 314.021, 68.86841, 3.1059e-003, 1.3799e-005
 319.021, 70.18689, 3.1773e-003, 1.3906e-005
 324.021, 71.51282, 3.2469e-003, 1.4062e-005
 329.021, 72.84609, 3.3169e-003, 1.2373e-005
 334.021, 74.18615, 3.3853e-003, 1.4163e-005
 339.021, 75.53436, 3.4558e-003, 1.4207e-005
 344.021, 76.89172, 3.5259e-003, 1.4051e-005
 349.021, 78.25740, 3.5967e-003, 1.4197e-005
 354.021, 79.63018, 3.6671e-003, 1.4459e-005
 359.021, 81.01404, 3.7374e-003, 1.3889e-005
 364.021, 82.40339, 3.8064e-003, 1.3928e-005
 369.021, 83.80301, 3.8743e-003, 1.3446e-005
 374.021, 85.21158, 3.9397e-003, 1.2726e-005
 379.021, 86.62625, 4.0002e-003, 1.1609e-005
 384.021, 88.04941, 4.0533e-003, 1.2380e-005
 389.021, 89.48131, 4.1207e-003, 1.5628e-005
 394.021, 90.91992, 4.1988e-003, 1.6804e-005
 399.021, 92.36815, 4.2761e-003, 1.6184e-005
 404.021, 93.82899, 4.3520e-003, 1.4603e-005
 409.021, 95.28989, 4.4253e-003, 1.5161e-005
 414.021, 96.76407, 4.4972e-003, 1.5062e-005
 419.021, 98.24268, 4.5689e-003, 1.3890e-005
 424.021, 99.73472, 4.6407e-003, 1.4043e-005
 429.021,101.232, 4.7118e-003, 1.3694e-005
 434.021,102.738, 4.7830e-003, 1.4428e-005
 439.021,104.252, 4.8541e-003, 1.4736e-005
 444.021,105.772, 4.9250e-003, 1.4146e-005
 449.021,107.303, 4.9956e-003, 1.4548e-005
 454.021,108.845, 5.0663e-003, 1.4096e-005
 459.021,110.392, 5.1363e-003, 1.4274e-005
 464.021,111.945, 5.2079e-003, 1.4358e-005
 469.021,113.511, 5.2789e-003, 1.3721e-005
 474.021,115.081, 5.3496e-003, 1.4210e-005
 479.021,116.656, 5.4207e-003, 1.4135e-005
 484.021,118.24, 5.4923e-003, 1.4638e-005
 489.021,119.833, 5.5636e-003, 1.4781e-005
 494.021,121.437, 5.6346e-003, 1.3636e-005
 499.021,123.044, 5.7050e-003, 1.3780e-005
 504.021,124.657, 5.7771e-003, 1.4084e-005
 509.021,126.279, 5.8482e-003, 1.4950e-005
 514.021,127.906, 5.9201e-003, 1.4106e-005
 519.021,129.543, 5.9915e-003, 1.4143e-005
 524.021,131.187, 6.0632e-003, 1.4671e-005
 529.021,132.84, 6.1360e-003, 1.3836e-005
 534.021,134.494, 6.2075e-003, 1.3825e-005
 539.021,136.158, 6.2803e-003, 1.4329e-005
 544.021,137.83, 6.3525e-003, 1.3926e-005
 549.021,139.501, 6.4258e-003, 1.5074e-005
 554.021,141.189, 6.4986e-003, 1.4893e-005
 559.021,142.875, 6.5707e-003, 1.4795e-005
 564.021,144.575, 6.6426e-003, 1.3728e-005
 569.021,146.279, 6.7146e-003, 1.4726e-005
 574.021,147.989, 6.7867e-003, 1.5271e-005
 579.021,149.704, 6.8597e-003, 1.4557e-005
 584.021,151.435, 6.9320e-003, 1.4562e-005
 589.021,153.163, 7.0038e-003, 1.4666e-005
 594.021,154.897, 7.0748e-003, 1.4846e-005
 599.021,156.634, 7.1483e-003, 1.4513e-005
 604.021,158.387, 7.2235e-003, 1.4920e-005
 609.021,160.184, 7.3007e-003, 1.4776e-005
 614.021,161.924, 7.3699e-003, 1.3324e-005
 619.021,163.614, 7.4384e-003, 1.3017e-005
 624.021,165.333, 7.5080e-003, 1.4546e-005
 629.021,167.067, 7.5792e-003, 1.3879e-005
 634.021,168.832, 7.6497e-003, 1.4351e-005
 639.021,170.609, 7.7193e-003, 1.4534e-005
 644.021,172.401, 7.7906e-003, 1.4108e-005
 649.021,174.203, 7.8607e-003, 1.4615e-005
 654.021,176.012, 7.9299e-003, 1.3403e-005
 659.021,177.825, 7.9992e-003, 1.4065e-005
 664.021,179.651, 8.0695e-003, 1.3197e-005
 669.021,181.478, 8.1401e-003, 1.3900e-005
 674.021,183.312, 8.2107e-003, 1.3714e-005
 679.021,185.176, 8.2856e-003, 1.6774e-005
 684.021,187.074, 8.3596e-003, 1.2925e-005
 689.021,188.899, 8.4266e-003, 1.4099e-005
 694.021,190.71, 8.4959e-003, 1.4089e-005
 699.021,192.564, 8.5664e-003, 1.3651e-005
 704.021,194.442, 8.6366e-003, 1.3861e-005
 709.021,196.336, 8.7068e-003, 1.4678e-005
 714.021,198.24, 8.7768e-003, 1.4689e-005
 719.021,200.147, 8.8478e-003, 1.3837e-005
 724.021,202.064, 8.9182e-003, 1.4611e-005
 729.021,203.978, 8.9892e-003, 1.3662e-005
 734.021,205.896, 9.0600e-003, 1.3367e-005
 739.021,207.822, 9.1309e-003, 1.4960e-005
 744.021,209.744, 9.2014e-003, 1.3590e-005
 749.021,211.673, 9.2738e-003, 1.5086e-005
 754.021,213.65, 9.3493e-003, 1.4010e-005
 759.021,215.589, 9.4171e-003, 1.3049e-005
 764.021,217.466, 9.4852e-003, 1.3143e-005
 769.021,219.36, 9.5514e-003, 1.2576e-005
 774.021,221.267, 9.6193e-003, 1.4175e-005
 779.021,223.193, 9.6869e-003, 1.4214e-005
 784.021,225.135, 9.7535e-003, 1.3564e-005
 789.021,227.108, 9.8214e-003, 1.3664e-005
 794.021,229.182, 9.8898e-003, 1.2073e-005
 799.021,231.333, 9.9584e-003, 1.4117e-005
 804.021,233.458, 1.0026e-002, 1.5285e-005
 809.021,235.627, 1.0093e-002, 1.3024e-005
 814.021,237.758, 1.0161e-002, 1.3331e-005
 819.021,239.819, 1.0228e-002, 1.3354e-005
 824.021,241.808, 1.0290e-002, 1.2461e-005
 829.021,243.751, 1.0354e-002, 1.4814e-005
 834.021,245.687, 1.0418e-002, 1.1234e-005
 839.021,247.649, 1.0480e-002, 1.2226e-005
 844.021,249.615, 1.0547e-002, 1.3240e-005
 849.021,251.529, 1.0612e-002, 1.4093e-005
 854.021,253.459, 1.0677e-002, 1.2083e-005
 859.021,255.385, 1.0741e-002, 1.3074e-005
 864.021,257.336, 1.0805e-002, 1.4512e-005
 869.021,259.504, 1.0880e-002, 1.4150e-005
 874.021,261.705, 1.0944e-002, 1.0397e-005
 879.021,263.623, 1.1006e-002, 1.3095e-005
 884.021,265.572, 1.1067e-002, 1.1905e-005
 889.021,267.529, 1.1128e-002, 1.3026e-005
 894.021,269.494, 1.1190e-002, 1.2023e-005
 899.021,271.478, 1.1253e-002, 1.2855e-005
 904.021,273.489, 1.1316e-002, 1.3702e-005
 909.021,275.556, 1.1376e-002, 1.4220e-005
 914.021,277.955, 1.1447e-002, 1.8101e-005
 919.021,280.202, 1.1496e-002, 1.4049e-005
 924.021,282.137, 1.1563e-002, 1.1772e-005
 929.021,284.156, 1.1624e-002, 1.0646e-005
 934.021,286.082, 1.1682e-002, 1.2680e-005
 939.021,287.964, 1.1741e-002, 1.0343e-005
 944.021,289.843, 1.1801e-002, 1.2794e-005
 949.021,291.724, 1.1862e-002, 1.2440e-005
 954.021,293.605, 1.1923e-002, 1.1198e-005
 959.021,295.463, 1.1984e-002, 1.1271e-005
 964.021,297.317, 1.2045e-002, 1.2759e-005
 969.021,299.151, 1.2107e-002, 1.2934e-005
 974.021,301.045, 1.2174e-002, 1.6197e-005
 979.021,302.946, 1.2235e-002, 8.1630e-006
 984.021,304.785, 1.2294e-002, 1.3024e-005
 989.021,306.595, 1.2352e-002, 4.0337e-006
 994.021,308.431, 1.2412e-002, 1.3457e-005
 999.021,310.271, 1.2473e-002, 1.3019e-005
1004.02,312.104, 1.2535e-002, 1.2924e-005
1009.02,313.967, 1.2600e-002, 1.2132e-005
1014.02,315.791, 1.2662e-002, 1.3985e-005
1019.02,317.656, 1.2731e-002, 1.3651e-005
1024.02,319.641, 1.2798e-002, 1.1695e-005
1029.02,321.552, 1.2857e-002, 1.2748e-005
1034.02,323.46, 1.2910e-002, 1.0078e-005
1039.02,325.304, 1.2966e-002, 1.0561e-005
1044.02,327.085, 1.3021e-002, 1.0612e-005
1049.02,328.898, 1.3077e-002, 1.0510e-005
1054.02,330.64, 1.3130e-002, 1.0299e-005
1056.02,331.279, 1.3154e-002, 1.3055e-005