Folder: thermal-expansion/data/8.1mm (part 4)

File: oligHawk001s1r2-7.1mm.csv
#EXPORTTYPE:           ,DATA ALL
#FILE:                 ,oligHawk001s1r2.ngb-sle
#FORMAT:               ,NETZSCH5
#FTYPE:                ,ANSI
#IDENTITY:             ,oligoclase
#DECIMAL:              ,POINT
#SEPARATOR:            ,COMMA
#MTYPE:                ,DIL
#INSTRUMENT:           ,NETZSCH DIL 402C
#PROJECT:              ,feldspar
#DATE/TIME:            ,8/23/2019 4:33:06 PM (UTC-5)
#CORR. FILE:           ,
#TEMPCAL:              ,TCALZERO.TMX
#LABORATORY:           ,Mineral Physics
#OPERATOR:             ,PAG
#REMARK:               ,bare, norm start, for short plageioclase, sapphire, hawk mine 001 after 1000C
#SAMPLE:               , hawk mine 001 rerun
#SAMPLE LENGTH /mm:    ,7.060
#MATERIAL:             ,sapphire stnd
#MEASMODE:             ,Standard Expansion
#PURGE GAS 1:          ,ARGON
#FLOW RATE 1 /(ml/min):,75
#M.RANGE /µm:          ,500
#CORR. CODE:           ,010
#RANGE:                ,20.0°C/3.0(K/min)/920.0°C
#SEGMENT:              ,S1/1
#SEG. 1:               ,20.0°C/3.0(K/min)/920.0°C

##Temp./°C,Time/min,dL/Lo
 22.65600, 0.00000, 2.3233e-005
 22.59900, 0.30333, 2.3233e-005
 22.53200, 0.60667, 2.1762e-005
 22.46400, 0.91000, 2.0055e-005
 22.40300, 1.21333, 1.8556e-005
 22.35200, 1.51667, 1.7094e-005
 22.28300, 1.82000, 1.5291e-005
 22.20900, 2.12333, 1.3275e-005
 22.15700, 2.42667, 1.1575e-005
 22.11400, 2.73000, 9.6215e-006
 22.11200, 3.03333, 6.3140e-006
 22.18900, 3.33667, 8.2666e-007
 22.36400, 3.64000,-7.9617e-006
 22.70300, 3.94333,-1.8924e-005
 23.21400, 4.24667,-3.3295e-005
 23.88900, 4.55000,-4.9289e-005
 24.74000, 4.85333,-6.6677e-005
 25.75000, 5.15667,-8.4853e-005
 26.89900, 5.46000,-1.0159e-004
 28.14900, 5.76333,-1.1743e-004
 29.48300, 6.06667,-1.3066e-004
 30.87200, 6.37000,-1.4197e-004
 32.27600, 6.67333,-1.4998e-004
 33.73300, 6.97667,-1.5499e-004
 35.19000, 7.28000,-1.5710e-004
 36.64900, 7.58333,-1.5708e-004
 38.13500, 7.88667,-1.5418e-004
 39.59800, 8.19000,-1.4932e-004
 41.05900, 8.49333,-1.4374e-004
 42.54400, 8.79667,-1.3673e-004
 44.02800, 9.10000,-1.2896e-004
 45.52200, 9.40333,-1.2065e-004
 47.04100, 9.70667,-1.1165e-004
 48.57200,10.01000,-1.0204e-004
 50.12600,10.31333,-9.1891e-005
 51.69200,10.61667,-8.1052e-005
 53.26400,10.92000,-7.0079e-005
 54.84400,11.22333,-5.8515e-005
 56.44200,11.52667,-4.5491e-005
 58.04200,11.83000,-3.1546e-005
 59.66100,12.13333,-1.7886e-005
 61.27000,12.43667,-2.8434e-006
 62.87800,12.74000, 1.2762e-005
 64.47700,13.04333, 2.8996e-005
 66.08400,13.34667, 4.5858e-005
 67.68200,13.65000, 6.3367e-005
 69.27100,13.95333, 8.0779e-005
 70.86600,14.25667, 9.9337e-005
 72.47400,14.56000, 1.1867e-004
 74.05400,14.86333, 1.3757e-004
 75.64200,15.16667, 1.5640e-004
 77.23000,15.47000, 1.7684e-004
 78.81400,15.77333, 1.9676e-004
 80.38700,16.07667, 2.1630e-004
 81.94300,16.38000, 2.3662e-004
 83.51200,16.68333, 2.5718e-004
 85.07800,16.98667, 2.7787e-004
 86.62900,17.29000, 2.9869e-004
 88.19200,17.59333, 3.1957e-004
 89.73700,17.89667, 3.4003e-004
 91.29500,18.20000, 3.6158e-004
 92.81600,18.50333, 3.8254e-004
 94.36000,18.80667, 4.0395e-004
 95.90000,19.11000, 4.2520e-004
 97.43100,19.41333, 4.4679e-004
 98.95800,19.71667, 4.6837e-004
100.474,20.02000, 4.9009e-004
101.991,20.32333, 5.1236e-004
103.497,20.62667, 5.3341e-004
104.997,20.93000, 5.5480e-004
106.501,21.23333, 5.7681e-004
108.011,21.53667, 5.9803e-004
109.494,21.84000, 6.1976e-004
110.986,22.14333, 6.4156e-004
112.479,22.44667, 6.6352e-004
113.962,22.75000, 6.8509e-004
115.447,23.05333, 7.0668e-004
116.933,23.35667, 7.2840e-004
118.413,23.66000, 7.5051e-004
119.893,23.96333, 7.7233e-004
121.359,24.26667, 7.9337e-004
122.821,24.57000, 8.1564e-004
124.283,24.87333, 8.3775e-004
125.754,25.17667, 8.5937e-004
127.211,25.48000, 8.8091e-004
128.658,25.78333, 9.0293e-004
130.109,26.08667, 9.2480e-004
131.56,26.39000, 9.4713e-004
133.007,26.69333, 9.6889e-004
134.445,26.99667, 9.9070e-004
135.89,27.30000, 1.0128e-003
137.333,27.60333, 1.0340e-003
138.759,27.90667, 1.0562e-003
140.209,28.21000, 1.0779e-003
141.634,28.51333, 1.1001e-003
143.064,28.81667, 1.1214e-003
144.495,29.12000, 1.1432e-003
145.922,29.42333, 1.1650e-003
147.346,29.72667, 1.1861e-003
148.763,30.03000, 1.2082e-003
150.187,30.33333, 1.2294e-003
151.604,30.63667, 1.2509e-003
153.011,30.94000, 1.2726e-003
154.421,31.24333, 1.2940e-003
155.84,31.54667, 1.3156e-003
157.26,31.85000, 1.3369e-003
158.661,32.15333, 1.3580e-003
160.065,32.45667, 1.3795e-003
161.464,32.76000, 1.4011e-003
162.864,33.06333, 1.4222e-003
164.262,33.36667, 1.4438e-003
165.652,33.67000, 1.4646e-003
167.053,33.97333, 1.4862e-003
168.44,34.27667, 1.5076e-003
169.826,34.58000, 1.5288e-003
171.218,34.88333, 1.5495e-003
172.598,35.18667, 1.5709e-003
173.981,35.49000, 1.5918e-003
175.355,35.79333, 1.6131e-003
176.73,36.09667, 1.6340e-003
178.097,36.40000, 1.6556e-003
179.463,36.70333, 1.6772e-003
180.831,37.00667, 1.6973e-003
182.201,37.31000, 1.7187e-003
183.564,37.61333, 1.7398e-003
184.921,37.91667, 1.7601e-003
186.278,38.22000, 1.7813e-003
187.63,38.52333, 1.8019e-003
188.985,38.82667, 1.8222e-003
190.349,39.13000, 1.8431e-003
191.694,39.43333, 1.8636e-003
193.048,39.73667, 1.8842e-003
194.398,40.04000, 1.9057e-003
195.737,40.34333, 1.9261e-003
197.074,40.64667, 1.9464e-003
198.409,40.95000, 1.9672e-003
199.746,41.25333, 1.9875e-003
201.082,41.55667, 2.0083e-003
202.406,41.86000, 2.0281e-003
203.747,42.16333, 2.0483e-003
205.078,42.46667, 2.0678e-003
206.39,42.77000, 2.0884e-003
207.71,43.07333, 2.1086e-003
209.029,43.37667, 2.1289e-003
210.36,43.68000, 2.1496e-003
211.67,43.98333, 2.1696e-003
212.992,44.28667, 2.1897e-003
214.3,44.59000, 2.2091e-003
215.612,44.89333, 2.2292e-003
216.92,45.19667, 2.2491e-003
218.225,45.50000, 2.2694e-003
219.519,45.80333, 2.2888e-003
220.822,46.10667, 2.3094e-003
222.13,46.41000, 2.3298e-003
223.427,46.71333, 2.3497e-003
224.72,47.01667, 2.3689e-003
226.012,47.32000, 2.3898e-003
227.303,47.62333, 2.4091e-003
228.592,47.92667, 2.4289e-003
229.886,48.23000, 2.4484e-003
231.164,48.53333, 2.4678e-003
232.447,48.83667, 2.4878e-003
233.731,49.14000, 2.5078e-003
235.006,49.44333, 2.5271e-003
236.286,49.74667, 2.5464e-003
237.572,50.05000, 2.5660e-003
238.839,50.35333, 2.5856e-003
240.113,50.65667, 2.6051e-003
241.388,50.96000, 2.6244e-003
242.648,51.26333, 2.6432e-003
243.915,51.56667, 2.6632e-003
245.174,51.87000, 2.6823e-003
246.436,52.17333, 2.7017e-003
247.698,52.47667, 2.7209e-003
248.949,52.78000, 2.7403e-003
250.203,53.08333, 2.7593e-003
251.451,53.38667, 2.7785e-003
252.706,53.69000, 2.7973e-003
253.959,53.99333, 2.8163e-003
255.201,54.29667, 2.8349e-003
256.444,54.60000, 2.8544e-003
257.692,54.90333, 2.8736e-003
258.936,55.20667, 2.8937e-003
260.175,55.51000, 2.9137e-003
261.405,55.81333, 2.9334e-003
262.629,56.11667, 2.9538e-003
263.853,56.42000, 2.9737e-003
265.068,56.72333, 2.9935e-003
266.291,57.02667, 3.0137e-003
267.498,57.33000, 3.0331e-003
268.705,57.63333, 3.0525e-003
269.929,57.93667, 3.0718e-003
271.145,58.24000, 3.0903e-003
272.363,58.54333, 3.1079e-003
273.585,58.84667, 3.1252e-003
274.818,59.15000, 3.1422e-003
276.065,59.45333, 3.1593e-003
277.32,59.75667, 3.1762e-003
278.583,60.06000, 3.1940e-003
279.836,60.36333, 3.2107e-003
281.101,60.66667, 3.2281e-003
282.364,60.97000, 3.2458e-003
283.629,61.27333, 3.2640e-003
284.886,61.57667, 3.2821e-003
286.155,61.88000, 3.3000e-003
287.404,62.18333, 3.3178e-003
288.659,62.48667, 3.3362e-003
289.895,62.79000, 3.3539e-003
291.133,63.09333, 3.3725e-003
292.369,63.39667, 3.3910e-003
293.591,63.70000, 3.4094e-003
294.808,64.00333, 3.4278e-003
296.026,64.30667, 3.4459e-003
297.232,64.61000, 3.4647e-003
298.435,64.91333, 3.4800e-003
299.638,65.21667, 3.4984e-003
300.838,65.52000, 3.5165e-003
302.031,65.82333, 3.5343e-003
303.226,66.12667, 3.5525e-003
304.405,66.43000, 3.5704e-003
305.594,66.73333, 3.5886e-003
306.769,67.03667, 3.6064e-003
307.946,67.34000, 3.6247e-003
309.119,67.64333, 3.6428e-003
310.285,67.94667, 3.6603e-003
311.447,68.25000, 3.6781e-003
312.611,68.55333, 3.6953e-003
313.768,68.85667, 3.7131e-003
314.925,69.16000, 3.7306e-003
316.088,69.46333, 3.7486e-003
317.242,69.76667, 3.7661e-003
318.397,70.07000, 3.7837e-003
319.537,70.37333, 3.8010e-003
320.684,70.67667, 3.8184e-003
321.829,70.98000, 3.8360e-003
322.975,71.28333, 3.8535e-003
324.108,71.58667, 3.8704e-003
325.242,71.89000, 3.8879e-003
326.375,72.19333, 3.9051e-003
327.517,72.49667, 3.9228e-003
328.646,72.80000, 3.9398e-003
329.766,73.10333, 3.9566e-003
330.885,73.40667, 3.9734e-003
332.017,73.71000, 3.9906e-003
333.146,74.01333, 4.0077e-003
334.265,74.31667, 4.0239e-003
335.374,74.62000, 4.0409e-003
336.505,74.92333, 4.0577e-003
337.616,75.22667, 4.0741e-003
338.736,75.53000, 4.0906e-003
339.857,75.83333, 4.1072e-003
340.962,76.13667, 4.1234e-003
342.078,76.44000, 4.1399e-003
343.196,76.74333, 4.1559e-003
344.302,77.04667, 4.1713e-003
345.41,77.35000, 4.1877e-003
346.513,77.65333, 4.2041e-003
347.621,77.95667, 4.2202e-003
348.715,78.26000, 4.2364e-003
349.815,78.56333, 4.2531e-003
350.921,78.86667, 4.2697e-003
352.025,79.17000, 4.2857e-003
353.125,79.47333, 4.3021e-003
354.212,79.77667, 4.3187e-003
355.302,80.08000, 4.3348e-003
356.388,80.38333, 4.3510e-003
357.491,80.68667, 4.3673e-003
358.576,80.99000, 4.3832e-003
359.664,81.29333, 4.3992e-003
360.756,81.59667, 4.4155e-003
361.843,81.90000, 4.4315e-003
362.935,82.20333, 4.4482e-003
364.014,82.50667, 4.4634e-003
365.098,82.81000, 4.4785e-003
366.177,83.11333, 4.4945e-003
367.263,83.41667, 4.5108e-003
368.348,83.72000, 4.5243e-003
369.423,84.02333, 4.5396e-003
370.503,84.32667, 4.5559e-003
371.58,84.63000, 4.5718e-003
372.661,84.93333, 4.5871e-003
373.731,85.23667, 4.6036e-003
374.802,85.54000, 4.6187e-003
375.872,85.84333, 4.6346e-003
376.952,86.14667, 4.6503e-003
378.013,86.45000, 4.6654e-003
379.085,86.75333, 4.6815e-003
380.145,87.05667, 4.6971e-003
381.21,87.36000, 4.7120e-003
382.278,87.66333, 4.7257e-003
383.341,87.96667, 4.7409e-003
384.401,88.27000, 4.7567e-003
385.309,88.53000, 4.7702e-003

File: oligHawk010s1r3-8.25mm.csv
#EXPORTTYPE:           ,DATA ALL
#FILE:                 ,oligHawk010s1r3.ngb-sle
#FORMAT:               ,NETZSCH5
#FTYPE:                ,ANSI
#IDENTITY:             ,oligioclase
#DECIMAL:              ,POINT
#SEPARATOR:            ,COMMA
#MTYPE:                ,DIL
#INSTRUMENT:           ,NETZSCH DIL 402C
#PROJECT:              ,feldspar
#DATE/TIME:            ,8/24/2019 10:12:59 AM (UTC-5)
#CORR. FILE:           ,
#TEMPCAL:              ,TCALZERO.TMX
#LABORATORY:           ,Mineral Physics
#OPERATOR:             ,PAG
#REMARK:               ,bare, norm start, for short plageioclase, sapphire, same crystal as 001
#SAMPLE:               ,hawk mine 010
#SAMPLE LENGTH /mm:    ,8.25
#MATERIAL:             ,sapphire stnd
#MEASMODE:             ,Standard Expansion
#PURGE GAS 1:          ,ARGON
#FLOW RATE 1 /(ml/min):,75
#M.RANGE /µm:          ,500
#CORR. CODE:           ,010
#RANGE:                ,20.0°C/3.0(K/min)/1010.0°C
#SEGMENT:              ,S1/1
#SEG. 1:               ,20.0°C/3.0(K/min)/1010.0°C

##Temp./°C,Time/min,dL/Lo,Alpha/(1/K)
  21.53000,  0.00000, 1.5194e-005, 5.4781e-006
  26.03000,  5.72085,-4.7754e-005,-9.5705e-006
  30.53000,  6.78610,-7.3331e-005,-2.5149e-006
  35.03000,  7.74461,-7.1011e-005, 3.0142e-006
  39.53000,  8.69064,-5.0689e-005, 5.9394e-006
  44.03000,  9.62129,-1.8993e-005, 7.3921e-006
  48.53000, 10.52471, 1.8572e-005, 8.4312e-006
  53.03000, 11.40098, 5.8891e-005, 9.4505e-006
  57.53000, 12.26026, 1.0342e-004, 1.0535e-005
  62.03000, 13.11130, 1.5433e-004, 1.1892e-005
  66.53000, 13.95970, 2.1029e-004, 1.2850e-005
  71.03000, 14.81171, 2.6887e-004, 1.2874e-005
  75.53000, 15.66734, 3.2801e-004, 1.3141e-005
  80.03000, 16.52748, 3.8815e-004, 1.3704e-005
  84.53000, 17.39455, 4.5048e-004, 1.3750e-005
  89.03000, 18.26952, 5.1355e-004, 1.3933e-005
  93.53000, 19.15269, 5.7795e-004, 1.4765e-005
  98.03000, 20.04388, 6.4334e-004, 1.4615e-005
 102.53, 20.94135, 7.0921e-004, 1.4759e-005
 107.03, 21.84534, 7.7504e-004, 1.4629e-005
 111.53, 22.75698, 8.4155e-004, 1.4860e-005
 116.03, 23.67591, 9.0879e-004, 1.5190e-005
 120.53, 24.59949, 9.7719e-004, 1.4599e-005
 125.03, 25.52736, 1.0445e-003, 1.5011e-005
 129.53, 26.46072, 1.1127e-003, 1.4840e-005
 134.03, 27.40076, 1.1814e-003, 1.5436e-005
 138.53, 28.34504, 1.2494e-003, 1.5242e-005
 143.03, 29.29540, 1.3174e-003, 1.5230e-005
 147.53, 30.25382, 1.3843e-003, 1.4920e-005
 152.03, 31.21504, 1.4498e-003, 1.4260e-005
 156.53, 32.18083, 1.5136e-003, 1.3738e-005
 161.03, 33.14870, 1.5745e-003, 1.3373e-005
 165.53, 34.12209, 1.6324e-003, 1.1586e-005
 170.03, 35.09988, 1.6824e-003, 9.7278e-006
 174.53, 36.08602, 1.7270e-003, 1.1081e-005
 179.03, 37.07488, 1.7829e-003, 1.4387e-005
 183.53, 38.06942, 1.8499e-003, 1.5122e-005
 188.03, 39.06968, 1.9184e-003, 1.5524e-005
 192.53, 40.07376, 1.9885e-003, 1.5268e-005
 197.03, 41.08302, 2.0589e-003, 1.5407e-005
 201.53, 42.09798, 2.1299e-003, 1.6218e-005
 206.03, 43.12191, 2.2006e-003, 1.5864e-005
 210.53, 44.15022, 2.2717e-003, 1.5009e-005
 215.03, 45.18045, 2.3427e-003, 1.5228e-005
 219.53, 46.21945, 2.4136e-003, 1.5782e-005
 224.03, 47.26334, 2.4848e-003, 1.6203e-005
 228.53, 48.31520, 2.5569e-003, 1.6339e-005
 233.03, 49.37203, 2.6276e-003, 1.6081e-005
 237.53, 50.43517, 2.7005e-003, 1.6175e-005
 242.03, 51.50453, 2.7729e-003, 1.6480e-005
 246.53, 52.57806, 2.8456e-003, 1.6063e-005
 251.03, 53.65832, 2.9176e-003, 1.5284e-005
 255.53, 54.74585, 2.9898e-003, 1.6066e-005
 260.03, 55.83694, 3.0621e-003, 1.5563e-005
 264.53, 56.93576, 3.1345e-003, 1.6224e-005
 269.03, 58.04236, 3.2061e-003, 1.6375e-005
 273.53, 59.15478, 3.2781e-003, 1.6574e-005
 278.03, 60.27271, 3.3504e-003, 1.6474e-005
 282.53, 61.39781, 3.4215e-003, 1.5606e-005
 287.03, 62.53184, 3.4937e-003, 1.5837e-005
 291.53, 63.66990, 3.5646e-003, 1.4938e-005
 296.03, 64.81387, 3.6338e-003, 1.5852e-005
 300.53, 65.96597, 3.7059e-003, 1.5299e-005
 305.03, 67.12354, 3.7763e-003, 1.5344e-005
 309.53, 68.29166, 3.8468e-003, 1.6398e-005
 314.03, 69.46372, 3.9172e-003, 1.5435e-005
 318.53, 70.64291, 3.9873e-003, 1.5443e-005
 323.03, 71.83016, 4.0571e-003, 1.4964e-005
 327.53, 73.02511, 4.1267e-003, 1.5262e-005
 332.03, 74.22549, 4.1967e-003, 1.4624e-005
 336.53, 75.43425, 4.2609e-003, 1.4028e-005
 341.03, 76.64545, 4.3294e-003, 1.5236e-005
 345.53, 77.86483, 4.3997e-003, 1.5266e-005
 350.03, 79.09138, 4.4706e-003, 1.5448e-005
 354.53, 80.32319, 4.5408e-003, 1.5799e-005
 359.03, 81.56160, 4.6099e-003, 1.5771e-005
 363.53, 82.80762, 4.6797e-003, 1.4665e-005
 368.03, 84.06099, 4.7488e-003, 1.4923e-005
 372.53, 85.31987, 4.8159e-003, 1.5010e-005
 377.03, 86.58208, 4.8822e-003, 1.4385e-005
 381.53, 87.85160, 4.9488e-003, 1.4680e-005
 386.03, 89.13047, 5.0163e-003, 1.5559e-005
 390.53, 90.41565, 5.0846e-003, 1.4613e-005
 395.03, 91.70653, 5.1526e-003, 1.5637e-005
 399.53, 93.00716, 5.2207e-003, 1.4620e-005
 404.03, 94.31382, 5.2885e-003, 1.5716e-005
 408.53, 95.62407, 5.3577e-003, 1.5300e-005
 413.03, 96.94237, 5.4272e-003, 1.5590e-005
 417.53, 98.26865, 5.4958e-003, 1.5454e-005
 422.03, 99.59960, 5.5642e-003, 1.4393e-005
 426.53,100.935, 5.6325e-003, 1.5658e-005
 431.03,102.279, 5.7004e-003, 1.4522e-005
 435.53,103.63, 5.7691e-003, 1.5302e-005
 440.03,104.99, 5.8390e-003, 1.5566e-005
 444.53,106.367, 5.9131e-003, 1.5911e-005
 449.03,107.769, 5.9861e-003, 1.5041e-005
 453.53,109.134, 6.0514e-003, 1.3892e-005
 458.03,110.458, 6.1166e-003, 1.5189e-005
 462.53,111.786, 6.1844e-003, 1.5098e-005
 467.03,113.137, 6.2534e-003, 1.5134e-005
 471.53,114.503, 6.3215e-003, 1.5699e-005
 476.03,115.895, 6.3919e-003, 1.6045e-005
 480.53,117.299, 6.4617e-003, 1.4843e-005
 485.03,118.72, 6.5318e-003, 1.4581e-005
 489.53,120.151, 6.6017e-003, 1.4887e-005
 494.03,121.588, 6.6715e-003, 1.5909e-005
 498.53,123.03, 6.7414e-003, 1.4753e-005
 503.03,124.486, 6.8088e-003, 1.5146e-005
 507.53,125.945, 6.8795e-003, 1.5711e-005
 512.03,127.436, 6.9541e-003, 1.6720e-005
 516.53,128.931, 7.0240e-003, 1.4395e-005
 521.03,130.371, 7.0863e-003, 1.3279e-005
 525.53,131.775, 7.1496e-003, 1.5241e-005
 530.03,133.187, 7.2160e-003, 1.4628e-005
 534.53,134.629, 7.2838e-003, 1.4643e-005
 539.03,136.094, 7.3517e-003, 1.4595e-005
 543.53,137.577, 7.4205e-003, 1.5163e-005
 548.03,139.077, 7.4893e-003, 1.5200e-005
 552.53,140.587, 7.5580e-003, 1.5040e-005
 557.03,142.105, 7.6269e-003, 1.5009e-005
 561.53,143.629, 7.6967e-003, 1.5051e-005
 566.03,145.159, 7.7662e-003, 1.5977e-005
 570.53,146.701, 7.8351e-003, 1.5842e-005
 575.03,148.241, 7.9040e-003, 1.4864e-005
 579.53,149.789, 7.9732e-003, 1.5185e-005
 584.03,151.343, 8.0425e-003, 1.4803e-005
 588.53,152.896, 8.1118e-003, 1.5301e-005
 593.03,154.456, 8.1820e-003, 1.5753e-005
 597.53,156.014, 8.2507e-003, 1.5282e-005
 602.03,157.579, 8.3195e-003, 1.4761e-005
 606.53,159.151, 8.3885e-003, 1.5177e-005
 611.03,160.724, 8.4584e-003, 1.5638e-005
 615.53,162.323, 8.5296e-003, 1.6703e-005
 620.03,163.937, 8.6005e-003, 1.4766e-005
 624.53,165.497, 8.6657e-003, 1.6133e-005
 629.03,167.034, 8.7328e-003, 1.5422e-005
 633.53,168.592, 8.8013e-003, 1.4874e-005
 638.03,170.167, 8.8707e-003, 1.5430e-005
 642.53,171.762, 8.9414e-003, 1.5674e-005
 647.03,173.375, 9.0123e-003, 1.6052e-005
 651.53,174.992, 9.0826e-003, 1.5813e-005
 656.03,176.615, 9.1534e-003, 1.6100e-005
 660.53,178.247, 9.2238e-003, 1.6281e-005
 665.03,179.884, 9.2949e-003, 1.5560e-005
 669.53,181.531, 9.3660e-003, 1.5528e-005
 674.03,183.185, 9.4373e-003, 1.5749e-005
 678.53,184.836, 9.5089e-003, 1.5308e-005
 683.03,186.497, 9.5806e-003, 1.5852e-005
 687.53,188.172, 9.6514e-003, 1.5858e-005
 692.03,189.841, 9.7216e-003, 1.5733e-005
 696.53,191.556, 9.7979e-003, 1.6997e-005
 701.03,193.315, 9.8721e-003, 1.6200e-005
 705.53,195.012, 9.9398e-003, 1.5516e-005
 710.03,196.667, 1.0009e-002, 1.6096e-005
 714.53,198.334, 1.0078e-002, 1.4856e-005
 719.03,200.024, 1.0148e-002, 1.4537e-005
 723.53,201.718, 1.0218e-002, 1.5222e-005
 728.03,203.427, 1.0287e-002, 1.5073e-005
 732.53,205.14, 1.0355e-002, 1.4003e-005
 737.03,206.864, 1.0424e-002, 1.7089e-005
 741.53,208.592, 1.0493e-002, 1.5164e-005
 746.03,210.319, 1.0562e-002, 1.5100e-005
 750.53,212.048, 1.0631e-002, 1.4958e-005
 755.03,213.773, 1.0699e-002, 1.5340e-005
 759.53,215.512, 1.0769e-002, 1.5505e-005
 764.03,217.246, 1.0839e-002, 1.3920e-005
 768.53,219.008, 1.0912e-002, 1.6301e-005
 773.03,220.797, 1.0984e-002, 1.4901e-005
 777.53,222.506, 1.1050e-002, 1.6145e-005
 782.03,224.203, 1.1119e-002, 1.7799e-005
 786.53,225.927, 1.1190e-002, 1.4873e-005
 791.03,227.702, 1.1261e-002, 1.5551e-005
 795.53,229.55, 1.1333e-002, 1.5951e-005
 800.03,231.507, 1.1405e-002, 1.5434e-005
 804.53,233.387, 1.1477e-002, 1.5954e-005
 809.03,235.346, 1.1548e-002, 1.6350e-005
 813.53,237.262, 1.1617e-002, 1.7119e-005
 818.03,239.088, 1.1684e-002, 1.4904e-005
 822.53,240.915, 1.1753e-002, 1.4735e-005
 827.03,242.743, 1.1824e-002, 1.5380e-005
 831.53,244.589, 1.1894e-002, 1.5401e-005
 836.03,246.359, 1.1962e-002, 1.5225e-005
 840.53,248.063, 1.2028e-002, 1.6410e-005
 845.03,249.749, 1.2095e-002, 1.5274e-005
 849.53,251.454, 1.2164e-002, 1.4843e-005
 854.03,253.168, 1.2232e-002, 1.5256e-005
 858.53,254.89, 1.2299e-002, 1.5085e-005
 863.03,256.613, 1.2365e-002, 1.5686e-005
 867.53,258.351, 1.2434e-002, 1.5415e-005
 872.03,260.123, 1.2502e-002, 1.5643e-005
 876.53,261.95, 1.2572e-002, 1.6480e-005
 881.03,263.982, 1.2647e-002, 1.6056e-005
 885.53,265.857, 1.2714e-002, 1.5951e-005
 890.03,267.653, 1.2782e-002, 1.4839e-005
 894.53,269.431, 1.2848e-002, 1.4058e-005
 899.03,271.212, 1.2915e-002, 1.5086e-005
 903.53,273.039, 1.2982e-002, 1.4888e-005
 908.03,274.877, 1.3051e-002, 1.5111e-005
 912.53,276.833, 1.3121e-002, 1.5841e-005
 917.03,279.238, 1.3196e-002, 1.3264e-005
 921.53,281.059, 1.3256e-002, 1.6781e-005
 926.03,282.779, 1.3321e-002, 1.4252e-005
 930.53,284.53, 1.3392e-002, 1.4878e-005
 935.03,286.264, 1.3461e-002, 1.8195e-005
 939.53,288.14, 1.3528e-002, 1.2869e-005
 944.03,289.804, 1.3591e-002, 1.2029e-005
 948.53,291.45, 1.3662e-002, 1.5448e-005
 953.03,293.11, 1.3725e-002, 1.3630e-005
 957.53,294.808, 1.3792e-002, 1.4276e-005
 962.03,296.44, 1.3857e-002, 1.5973e-005
 966.53,298.173, 1.3927e-002, 1.4188e-005
 971.03,299.802, 1.3990e-002, 1.5134e-005
 975.53,301.436, 1.4060e-002, 1.6556e-005
 980.03,303.121, 1.4127e-002, 1.4114e-005
 984.53,304.771, 1.4198e-002, 1.5655e-005
 989.03,306.544, 1.4269e-002, 1.3634e-005
 993.53,308.172, 1.4336e-002, 1.4458e-005
 998.03,309.822, 1.4405e-002, 1.6240e-005
1002.53,311.404, 1.4468e-002, 1.5557e-005
1007.03,313.038, 1.4536e-002, 1.5287e-005
1011.53,314.693, 1.4602e-002, 1.4156e-005
1016.03,316.379, 1.4668e-002, 1.5556e-005
1020.53,318.08, 1.4736e-002, 1.4328e-005
1025.03,319.783, 1.4804e-002, 1.3762e-005
1029.53,321.509, 1.4872e-002, 1.8198e-005